Silence_resp.keys,Silence_resp.rt,Consent_resp.keys,Consent_resp.rt,Lang_resp.keys,Lang_resp.rt,Race_resp.keys,Race_resp.rt,xxx.thisRepN,xxx.thisTrialN,xxx.thisN,xxx.thisIndex,xxx.ran,participant,date,expName,psychopyVersion,OS,frameRate,OGTIns1_resp.keys,OGTIns1_resp.rt,Missing_resp.keys,face_trials.thisRepN,face_trials.thisTrialN,face_trials.thisN,face_trials.thisIndex,face_trials.ran,missingPerson,sex,name,PMIns1_resp.keys,PM_INS_LOOP.thisRepN,PM_INS_LOOP.thisTrialN,PM_INS_LOOP.thisN,PM_INS_LOOP.thisIndex,PM_INS_LOOP.ran,FinalRecalIns_resp.keys,FinalRecalIns_resp.rt,finalrecall_subid,finalrecall_date,finalrecall_exp,finalrecall_cond,finalrecall_word,finalcuerecall_trialCounter,finalrecall_typedWord,finalrecall_wordRT,finalrecall_recallList,finalrecall_startTrial,finalrecall_endTrial,finalrecall_elapsedTime,finalrecall_startRecallTime,FinalRecall_Loop.thisRepN,FinalRecall_Loop.thisTrialN,FinalRecall_Loop.thisN,FinalRecall_Loop.thisIndex,FinalRecall_Loop.ran,OGT_resp.keys,OGT_resp.corr,OGT_resp.rt,ogt_subid,ogt_date,ogt_exp,ogt_cond,ogt_trialnum,ogt_word,ogt_img,ogt_class,ogt_color,ogt_cue,ogt_resp,ogt_rt,OGTWaiting_resp.keys,OGTWaiting_resp.rt,OGTWait_resp,OGTWait_rt,OGT_trials.thisRepN,OGT_trials.thisTrialN,OGT_trials.thisN,OGT_trials.thisIndex,OGT_trials.ran,Word,OldWord,OldStimClass,StimClass,CorrAns,StimColor,Wordlist_Ogg,Wordlist_MP3,Trial,Cue,imageFile,iposX,iposY,StimDir,EmotClass,FaceNum,imageFile1,imageFile2,imageFile3,imageFile4,OGT_Loop.thisRepN,OGT_Loop.thisTrialN,OGT_Loop.thisN,OGT_Loop.thisIndex,OGT_Loop.ran,studyFaceList,Recog_Ins_resp.keys,Recog_Ins_resp.rt,Recog_resp.keys,Recog_resp.rt,recog_subid,recog_date,recog_exp,recog_cond,recog_race,recog_lang,recog_trialnum,recog_word,recog_img,recog_resp,recog_rt,recog_studyList,recog_studyList0,recog_studyList1,recog_studyList2,recog_listPos,recog_listNeg,recog_listHO,recog_listHC,recog_listA,recog_listF,Recog_LOOP.thisRepN,Recog_LOOP.thisTrialN,Recog_LOOP.thisN,Recog_LOOP.thisIndex,Recog_LOOP.ran,ImageFile1,Debrief_resp.keys,Debrief_resp.rt,Thankyou_resp.keys,EXP.thisRepN,EXP.thisTrialN,EXP.thisN,EXP.thisIndex,EXP.ran
space,11.358,y,34.629,n,4.951,5,3.554,0,0,0,0,1,13570,2020-09-30_14h30.57.246,pmfbcont,2020.1.3,MacIntel,60,,,,,,,,,,,,,,,,,,,,,,,,,,,,,,,,,,,,,,,,,,,,,,,,,,,,,,,,,,,,,,,,,,,,,,,,,,,,,,,,,,,,,,,,,,,,,,,,,,,,,,,,,,,,,,,,,,,,,,,,,,,,,,
,,,,,,,,,,,,,13570,2020-09-30_14h30.57.246,pmfbcont,2020.1.3,MacIntel,60,space,16.722,,0,0,0,1,1,CFD-BF-250-121-N-resized.jpg,Female,Stacia,,,,,,,,,,,,,,,,,,,,,,,,,,,,,,,,,,,,,,,,,,,,,,,,,,,,,,,,,,,,,,,,,,,,,,,,,,,,,,,,,,,,,,,,,,,,,,,,,,,,,,,,,,,,,,,,,,,
,,,,,,,,,,,,,13570,2020-09-30_14h30.57.246,pmfbcont,2020.1.3,MacIntel,60,,,,,,,,,,,,,0,0,0,0,1,,,,,,,,,,,,,,,,,,,,,,,,,,,,,,,,,,,,,,,,,,,,,,,,,,,,,,,,,,,,,,,,,,,,,,,,,,,,,,,,,,,,,,,,,,,,,,,,,,,,,,,,,,,,,
,,,,,,,,,,,,,13570,2020-09-30_14h30.57.246,pmfbcont,2020.1.3,MacIntel,60,,,,,,,,,,,,,,,,,,space,0.55,13570,2020-09-30_14h30.57.246,pmfbcont,pmface-cont-black,TENT,1,TENT,2.033,"[""TENT""]",107.74,109.773,2.034,107.739,0,0,0,0,1,,,,,,,,,,,,,,,,,,,,,,,,,,,,,,,,,,,,,,,,,,,,,,,,,,,,,,,,,,,,,,,,,,,,,,,,,,,,,,,,,,,,,,,,,
,,,,,,,,,,,,,13570,2020-09-30_14h30.57.246,pmfbcont,2020.1.3,MacIntel,60,,,,,,,,,,,,,,,,,,,,13570,2020-09-30_14h30.57.246,pmfbcont,pmface-cont-black,FLASHLIGHT,2,FLASHLIGHT,4.617,"[""TENT"",""FLASHLIGHT""]",109.774,114.391,6.652,107.739,1,0,1,0,1,,,,,,,,,,,,,,,,,,,,,,,,,,,,,,,,,,,,,,,,,,,,,,,,,,,,,,,,,,,,,,,,,,,,,,,,,,,,,,,,,,,,,,,,,
,,,,,,,,,,,,,13570,2020-09-30_14h30.57.246,pmfbcont,2020.1.3,MacIntel,60,,,,,,,,,,,,,,,,,,,,13570,2020-09-30_14h30.57.246,pmfbcont,pmface-cont-black,FOOD,3,FOOD,1.534,"[""TENT"",""FLASHLIGHT"",""FOOD""]",114.391,115.925,8.186,107.739,2,0,2,0,1,,,,,,,,,,,,,,,,,,,,,,,,,,,,,,,,,,,,,,,,,,,,,,,,,,,,,,,,,,,,,,,,,,,,,,,,,,,,,,,,,,,,,,,,,
,,,,,,,,,,,,,13570,2020-09-30_14h30.57.246,pmfbcont,2020.1.3,MacIntel,60,,,,,,,,,,,,,,,,,,,,13570,2020-09-30_14h30.57.246,pmfbcont,pmface-cont-black,FIRE,4,FIRE,0.683,"[""TENT"",""FLASHLIGHT"",""FOOD"",""FIRE""]",115.925,116.608,8.869,107.739,3,0,3,0,1,,,,,,,,,,,,,,,,,,,,,,,,,,,,,,,,,,,,,,,,,,,,,,,,,,,,,,,,,,,,,,,,,,,,,,,,,,,,,,,,,,,,,,,,,
,,,,,,,,,,,,,13570,2020-09-30_14h30.57.246,pmfbcont,2020.1.3,MacIntel,60,,,,,,,,,,,,,,,,,,,,13570,2020-09-30_14h30.57.246,pmfbcont,pmface-cont-black,SMORES,5,SMORES,1.018,"[""TENT"",""FLASHLIGHT"",""FOOD"",""FIRE"",""SMORES""]",116.608,117.626,9.887,107.739,4,0,4,0,1,,,,,,,,,,,,,,,,,,,,,,,,,,,,,,,,,,,,,,,,,,,,,,,,,,,,,,,,,,,,,,,,,,,,,,,,,,,,,,,,,,,,,,,,,
,,,,,,,,,,,,,13570,2020-09-30_14h30.57.246,pmfbcont,2020.1.3,MacIntel,60,,,,,,,,,,,,,,,,,,,,13570,2020-09-30_14h30.57.246,pmfbcont,pmface-cont-black,DIRT,6,DIRT,3.55,"[""TENT"",""FLASHLIGHT"",""FOOD"",""FIRE"",""SMORES"",""DIRT""]",117.626,121.176,13.437,107.739,5,0,5,0,1,,,,,,,,,,,,,,,,,,,,,,,,,,,,,,,,,,,,,,,,,,,,,,,,,,,,,,,,,,,,,,,,,,,,,,,,,,,,,,,,,,,,,,,,,
,,,,,,,,,,,,,13570,2020-09-30_14h30.57.246,pmfbcont,2020.1.3,MacIntel,60,,,,,,,,,,,,,,,,,,,,13570,2020-09-30_14h30.57.246,pmfbcont,pmface-cont-black,DIRTY,7,DIRTY,3.585,"[""TENT"",""FLASHLIGHT"",""FOOD"",""FIRE"",""SMORES"",""DIRT"",""DIRTY""]",121.176,124.761,17.022,107.739,6,0,6,0,1,,,,,,,,,,,,,,,,,,,,,,,,,,,,,,,,,,,,,,,,,,,,,,,,,,,,,,,,,,,,,,,,,,,,,,,,,,,,,,,,,,,,,,,,,
,,,,,,,,,,,,,13570,2020-09-30_14h30.57.246,pmfbcont,2020.1.3,MacIntel,60,,,,,,,,,,,,,,,,,,,,13570,2020-09-30_14h30.57.246,pmfbcont,pmface-cont-black,SLEEPINGBAG,8,SLEEPINGBAG,3.084,"[""TENT"",""FLASHLIGHT"",""FOOD"",""FIRE"",""SMORES"",""DIRT"",""DIRTY"",""SLEEPINGBAG""]",124.761,127.845,20.106,107.739,7,0,7,0,1,,,,,,,,,,,,,,,,,,,,,,,,,,,,,,,,,,,,,,,,,,,,,,,,,,,,,,,,,,,,,,,,,,,,,,,,,,,,,,,,,,,,,,,,,
,,,,,,,,,,,,,13570,2020-09-30_14h30.57.246,pmfbcont,2020.1.3,MacIntel,60,,,,,,,,,,,,,,,,,,,,13570,2020-09-30_14h30.57.246,pmfbcont,pmface-cont-black,COOLER,9,COOLER,1.218,"[""TENT"",""FLASHLIGHT"",""FOOD"",""FIRE"",""SMORES"",""DIRT"",""DIRTY"",""SLEEPINGBAG"",""COOLER""]",127.845,129.063,21.324,107.739,8,0,8,0,1,,,,,,,,,,,,,,,,,,,,,,,,,,,,,,,,,,,,,,,,,,,,,,,,,,,,,,,,,,,,,,,,,,,,,,,,,,,,,,,,,,,,,,,,,
,,,,,,,,,,,,,13570,2020-09-30_14h30.57.246,pmfbcont,2020.1.3,MacIntel,60,,,,,,,,,,,,,,,,,,,,13570,2020-09-30_14h30.57.246,pmfbcont,pmface-cont-black,COOKINGSTOVE,10,COOKINGSTOVE,4.734,"[""TENT"",""FLASHLIGHT"",""FOOD"",""FIRE"",""SMORES"",""DIRT"",""DIRTY"",""SLEEPINGBAG"",""COOLER"",""COOKINGSTOVE""]",129.063,133.797,26.058,107.739,9,0,9,0,1,,,,,,,,,,,,,,,,,,,,,,,,,,,,,,,,,,,,,,,,,,,,,,,,,,,,,,,,,,,,,,,,,,,,,,,,,,,,,,,,,,,,,,,,,
,,,,,,,,,,,,,13570,2020-09-30_14h30.57.246,pmfbcont,2020.1.3,MacIntel,60,,,,,,,,,,,,,,,,,,,,13570,2020-09-30_14h30.57.246,pmfbcont,pmface-cont-black,STICKS,11,STICKS,1.951,"[""TENT"",""FLASHLIGHT"",""FOOD"",""FIRE"",""SMORES"",""DIRT"",""DIRTY"",""SLEEPINGBAG"",""COOLER"",""COOKINGSTOVE"",""STICKS""]",133.797,135.748,28.009,107.739,10,0,10,0,1,,,,,,,,,,,,,,,,,,,,,,,,,,,,,,,,,,,,,,,,,,,,,,,,,,,,,,,,,,,,,,,,,,,,,,,,,,,,,,,,,,,,,,,,,
,,,,,,,,,,,,,13570,2020-09-30_14h30.57.246,pmfbcont,2020.1.3,MacIntel,60,,,,,,,,,,,,,,,,,,,,13570,2020-09-30_14h30.57.246,pmfbcont,pmface-cont-black,JACKET,12,JACKET,2.968,"[""TENT"",""FLASHLIGHT"",""FOOD"",""FIRE"",""SMORES"",""DIRT"",""DIRTY"",""SLEEPINGBAG"",""COOLER"",""COOKINGSTOVE"",""STICKS"",""JACKET""]",135.748,138.716,30.977,107.739,11,0,11,0,1,,,,,,,,,,,,,,,,,,,,,,,,,,,,,,,,,,,,,,,,,,,,,,,,,,,,,,,,,,,,,,,,,,,,,,,,,,,,,,,,,,,,,,,,,
,,,,,,,,,,,,,13570,2020-09-30_14h30.57.246,pmfbcont,2020.1.3,MacIntel,60,,,,,,,,,,,,,,,,,,,,13570,2020-09-30_14h30.57.246,pmfbcont,pmface-cont-black,SWEATPANTS,13,SWEATPANTS,2.033,"[""TENT"",""FLASHLIGHT"",""FOOD"",""FIRE"",""SMORES"",""DIRT"",""DIRTY"",""SLEEPINGBAG"",""COOLER"",""COOKINGSTOVE"",""STICKS"",""JACKET"",""SWEATPANTS""]",138.716,140.749,33.009,107.739,12,0,12,0,1,,,,,,,,,,,,,,,,,,,,,,,,,,,,,,,,,,,,,,,,,,,,,,,,,,,,,,,,,,,,,,,,,,,,,,,,,,,,,,,,,,,,,,,,,
,,,,,,,,,,,,,13570,2020-09-30_14h30.57.246,pmfbcont,2020.1.3,MacIntel,60,,,,,,,,,,,,,,,,,,,,13570,2020-09-30_14h30.57.246,pmfbcont,pmface-cont-black,AHT,14,AHT,1.368,"[""TENT"",""FLASHLIGHT"",""FOOD"",""FIRE"",""SMORES"",""DIRT"",""DIRTY"",""SLEEPINGBAG"",""COOLER"",""COOKINGSTOVE"",""STICKS"",""JACKET"",""SWEATPANTS"",""AHT""]",140.749,142.117,34.378,107.739,13,0,13,0,1,,,,,,,,,,,,,,,,,,,,,,,,,,,,,,,,,,,,,,,,,,,,,,,,,,,,,,,,,,,,,,,,,,,,,,,,,,,,,,,,,,,,,,,,,
,,,,,,,,,,,,,13570,2020-09-30_14h30.57.246,pmfbcont,2020.1.3,MacIntel,60,,,,,,,,,,,,,,,,,,,,13570,2020-09-30_14h30.57.246,pmfbcont,pmface-cont-black,HAT,15,HAT,0.917,"[""TENT"",""FLASHLIGHT"",""FOOD"",""FIRE"",""SMORES"",""DIRT"",""DIRTY"",""SLEEPINGBAG"",""COOLER"",""COOKINGSTOVE"",""STICKS"",""JACKET"",""SWEATPANTS"",""AHT"",""HAT""]",142.117,143.034,35.295,107.739,14,0,14,0,1,,,,,,,,,,,,,,,,,,,,,,,,,,,,,,,,,,,,,,,,,,,,,,,,,,,,,,,,,,,,,,,,,,,,,,,,,,,,,,,,,,,,,,,,,
,,,,,,,,,,,,,13570,2020-09-30_14h30.57.246,pmfbcont,2020.1.3,MacIntel,60,,,,,,,,,,,,,,,,,,,,13570,2020-09-30_14h30.57.246,pmfbcont,pmface-cont-black,WARMCLOTHES,16,WARMCLOTHES,2.067,"[""TENT"",""FLASHLIGHT"",""FOOD"",""FIRE"",""SMORES"",""DIRT"",""DIRTY"",""SLEEPINGBAG"",""COOLER"",""COOKINGSTOVE"",""STICKS"",""JACKET"",""SWEATPANTS"",""AHT"",""HAT"",""WARMCLOTHES""]",143.034,145.101,37.362,107.739,15,0,15,0,1,,,,,,,,,,,,,,,,,,,,,,,,,,,,,,,,,,,,,,,,,,,,,,,,,,,,,,,,,,,,,,,,,,,,,,,,,,,,,,,,,,,,,,,,,
,,,,,,,,,,,,,13570,2020-09-30_14h30.57.246,pmfbcont,2020.1.3,MacIntel,60,,,,,,,,,,,,,,,,,,,,13570,2020-09-30_14h30.57.246,pmfbcont,pmface-cont-black,HIKINGBOOTS,17,HIKINGBOOTS,4.552,"[""TENT"",""FLASHLIGHT"",""FOOD"",""FIRE"",""SMORES"",""DIRT"",""DIRTY"",""SLEEPINGBAG"",""COOLER"",""COOKINGSTOVE"",""STICKS"",""JACKET"",""SWEATPANTS"",""AHT"",""HAT"",""WARMCLOTHES"",""HIKINGBOOTS""]",145.101,149.653,41.914,107.739,16,0,16,0,1,,,,,,,,,,,,,,,,,,,,,,,,,,,,,,,,,,,,,,,,,,,,,,,,,,,,,,,,,,,,,,,,,,,,,,,,,,,,,,,,,,,,,,,,,
,,,,,,,,,,,,,13570,2020-09-30_14h30.57.246,pmfbcont,2020.1.3,MacIntel,60,,,,,,,,,,,,,,,,,,,,13570,2020-09-30_14h30.57.246,pmfbcont,pmface-cont-black,BOOTS,18,BOOTS,1.166,"[""TENT"",""FLASHLIGHT"",""FOOD"",""FIRE"",""SMORES"",""DIRT"",""DIRTY"",""SLEEPINGBAG"",""COOLER"",""COOKINGSTOVE"",""STICKS"",""JACKET"",""SWEATPANTS"",""AHT"",""HAT"",""WARMCLOTHES"",""HIKINGBOOTS"",""BOOTS""]",149.653,150.819,43.08,107.739,17,0,17,0,1,,,,,,,,,,,,,,,,,,,,,,,,,,,,,,,,,,,,,,,,,,,,,,,,,,,,,,,,,,,,,,,,,,,,,,,,,,,,,,,,,,,,,,,,,
,,,,,,,,,,,,,13570,2020-09-30_14h30.57.246,pmfbcont,2020.1.3,MacIntel,60,,,,,,,,,,,,,,,,,,,,13570,2020-09-30_14h30.57.246,pmfbcont,pmface-cont-black,SNEAKERS,19,SNEAKERS,1.118,"[""TENT"",""FLASHLIGHT"",""FOOD"",""FIRE"",""SMORES"",""DIRT"",""DIRTY"",""SLEEPINGBAG"",""COOLER"",""COOKINGSTOVE"",""STICKS"",""JACKET"",""SWEATPANTS"",""AHT"",""HAT"",""WARMCLOTHES"",""HIKINGBOOTS"",""BOOTS"",""SNEAKERS""]",150.819,151.937,44.198,107.739,18,0,18,0,1,,,,,,,,,,,,,,,,,,,,,,,,,,,,,,,,,,,,,,,,,,,,,,,,,,,,,,,,,,,,,,,,,,,,,,,,,,,,,,,,,,,,,,,,,
,,,,,,,,,,,,,13570,2020-09-30_14h30.57.246,pmfbcont,2020.1.3,MacIntel,60,,,,,,,,,,,,,,,,,,,,13570,2020-09-30_14h30.57.246,pmfbcont,pmface-cont-black,FIRE,20,FIRE,6.767,"[""TENT"",""FLASHLIGHT"",""FOOD"",""FIRE"",""SMORES"",""DIRT"",""DIRTY"",""SLEEPINGBAG"",""COOLER"",""COOKINGSTOVE"",""STICKS"",""JACKET"",""SWEATPANTS"",""AHT"",""HAT"",""WARMCLOTHES"",""HIKINGBOOTS"",""BOOTS"",""SNEAKERS"",""FIRE""]",151.938,158.705,50.966,107.739,19,0,19,0,1,,,,,,,,,,,,,,,,,,,,,,,,,,,,,,,,,,,,,,,,,,,,,,,,,,,,,,,,,,,,,,,,,,,,,,,,,,,,,,,,,,,,,,,,,
,,,,,,,,,,,,,13570,2020-09-30_14h30.57.246,pmfbcont,2020.1.3,MacIntel,60,,,,,,,,,,,,,,,,,,,,13570,2020-09-30_14h30.57.246,pmfbcont,pmface-cont-black,CAMPINGFOOD,21,CAMPINGFOOD,7.536,"[""TENT"",""FLASHLIGHT"",""FOOD"",""FIRE"",""SMORES"",""DIRT"",""DIRTY"",""SLEEPINGBAG"",""COOLER"",""COOKINGSTOVE"",""STICKS"",""JACKET"",""SWEATPANTS"",""AHT"",""HAT"",""WARMCLOTHES"",""HIKINGBOOTS"",""BOOTS"",""SNEAKERS"",""FIRE"",""CAMPINGFOOD""]",158.705,166.241,58.502,107.739,20,0,20,0,1,,,,,,,,,,,,,,,,,,,,,,,,,,,,,,,,,,,,,,,,,,,,,,,,,,,,,,,,,,,,,,,,,,,,,,,,,,,,,,,,,,,,,,,,,
,,,,,,,,,,,,,13570,2020-09-30_14h30.57.246,pmfbcont,2020.1.3,MacIntel,60,,,,,,,,,,,,,,,,,,,,13570,2020-09-30_14h30.57.246,pmfbcont,pmface-cont-black,HOTDOGS,22,HOTDOGS,1.401,"[""TENT"",""FLASHLIGHT"",""FOOD"",""FIRE"",""SMORES"",""DIRT"",""DIRTY"",""SLEEPINGBAG"",""COOLER"",""COOKINGSTOVE"",""STICKS"",""JACKET"",""SWEATPANTS"",""AHT"",""HAT"",""WARMCLOTHES"",""HIKINGBOOTS"",""BOOTS"",""SNEAKERS"",""FIRE"",""CAMPINGFOOD"",""HOTDOGS""]",166.241,167.642,59.903,107.739,21,0,21,0,1,,,,,,,,,,,,,,,,,,,,,,,,,,,,,,,,,,,,,,,,,,,,,,,,,,,,,,,,,,,,,,,,,,,,,,,,,,,,,,,,,,,,,,,,,
,,,,,,,,,,,,,13570,2020-09-30_14h30.57.246,pmfbcont,2020.1.3,MacIntel,60,,,,,,,,,,,,,,,,,,,,13570,2020-09-30_14h30.57.246,pmfbcont,pmface-cont-black,,23,,0.099,"[""TENT"",""FLASHLIGHT"",""FOOD"",""FIRE"",""SMORES"",""DIRT"",""DIRTY"",""SLEEPINGBAG"",""COOLER"",""COOKINGSTOVE"",""STICKS"",""JACKET"",""SWEATPANTS"",""AHT"",""HAT"",""WARMCLOTHES"",""HIKINGBOOTS"",""BOOTS"",""SNEAKERS"",""FIRE"",""CAMPINGFOOD"",""HOTDOGS"",""""]",167.643,167.742,60.003,107.739,22,0,22,0,1,,,,,,,,,,,,,,,,,,,,,,,,,,,,,,,,,,,,,,,,,,,,,,,,,,,,,,,,,,,,,,,,,,,,,,,,,,,,,,,,,,,,,,,,,
,,,,,,,,,,,,,13570,2020-09-30_14h30.57.246,pmfbcont,2020.1.3,MacIntel,60,,,,,,,,,,,,,,,,,,,,,,,,,,,,,,,,,,,,,,f,1,0.772,13570,2020-09-30_14h30.57.246,pmfbcont,pmface-cont-black,1,,CFD-BF-049-042-F-resized.jpg,Neg,purple,0,f,0.772,space,1.112,space,1.112,0,0,0,35,1,,muffler,,Neg,f,purple,GRASS.ogg,GRASS.mp3,36,0,CFD-BF-049-042-F-resized.jpg,0,0,,F,10,CFD-BF-049-042-F-resized.jpg,CFD-BF-024-030-F-resized.jpg,,,,,,,,,,,,,,,,,,,,,,,,,,,,,,,,,,,,,,,,,,,,,,,
,,,,,,,,,,,,,13570,2020-09-30_14h30.57.246,pmfbcont,2020.1.3,MacIntel,60,,,,,,,,,,,,,,,,,,,,,,,,,,,,,,,,,,,,,,j,1,0.528,13570,2020-09-30_14h30.57.246,pmfbcont,pmface-cont-black,2,,CFD-BM-021-009-HC-resized.jpg,Pos,green,0,j,0.528,space,0.471,space,0.471,0,1,1,72,1,,zzzz,,Pos,j,green,MIRROR.ogg,MIRROR.mp24,73,0,CFD-BM-021-009-HC-resized.jpg,0,0,,HC,8,CFD-BM-021-009-HC-resized.jpg,CFD-BM-037-038-HC-resized.jpg,,,,,,,,,,,,,,,,,,,,,,,,,,,,,,,,,,,,,,,,,,,,,,,
,,,,,,,,,,,,,13570,2020-09-30_14h30.57.246,pmfbcont,2020.1.3,MacIntel,60,,,,,,,,,,,,,,,,,,,,,,,,,,,,,,,,,,,,,,f,1,0.79,13570,2020-09-30_14h30.57.246,pmfbcont,pmface-cont-black,3,,CFD-BF-041-047-A-resized.jpg,Neg,orange,0,f,0.79,space,0.398,space,0.398,0,2,2,50,1,,atout,,Neg,f,orange,MINUTE.ogg,MINUTE.mp3,51,0,CFD-BF-041-047-A-resized.jpg,0,0,,A,12,CFD-BF-041-047-A-resized.jpg,CFD-BF-027-008-A-resized.jpg,,,,,,,,,,,,,,,,,,,,,,,,,,,,,,,,,,,,,,,,,,,,,,,
,,,,,,,,,,,,,13570,2020-09-30_14h30.57.246,pmfbcont,2020.1.3,MacIntel,60,,,,,,,,,,,,,,,,,,,,,,,,,,,,,,,,,,,,,,j,0,0.783,13570,2020-09-30_14h30.57.246,pmfbcont,pmface-cont-black,4,,CFD-BF-041-018-F-resized.jpg,Neg,blue,0,j,0.783,space,0.441,space,0.441,0,3,3,37,1,,pinball,,Neg,f,blue,GREET.ogg,GREET.mp3,38,0,CFD-BF-041-018-F-resized.jpg,0,0,,F,12,CFD-BF-041-018-F-resized.jpg,CFD-BF-027-016-F-resized.jpg,,,,,,,,,,,,,,,,,,,,,,,,,,,,,,,,,,,,,,,,,,,,,,,
,,,,,,,,,,,,,13570,2020-09-30_14h30.57.246,pmfbcont,2020.1.3,MacIntel,60,,,,,,,,,,,,,,,,,,,,,,,,,,,,,,,,,,,,,,j,1,0.73,13570,2020-09-30_14h30.57.246,pmfbcont,pmface-cont-black,5,,CFD-BF-013-005-HC-resized.jpg,Pos,green,0,j,0.73,space,0.401,space,0.401,0,4,4,20,1,,lapaxer,,Pos,j,green,FIXED.ogg,FIXED.mp3,21,0,CFD-BF-013-005-HC-resized.jpg,0,0,,HC,8,CFD-BF-013-005-HC-resized.jpg,CFD-BF-021-015-HC-resized.jpg,,,,,,,,,,,,,,,,,,,,,,,,,,,,,,,,,,,,,,,,,,,,,,,
,,,,,,,,,,,,,13570,2020-09-30_14h30.57.246,pmfbcont,2020.1.3,MacIntel,60,,,,,,,,,,,,,,,,,,,,,,,,,,,,,,,,,,,,,,j,1,0.675,13570,2020-09-30_14h30.57.246,pmfbcont,pmface-cont-black,6,,CFD-BM-026-006-HC-resized.jpg,Pos,blue,0,j,0.675,space,0.299,space,0.299,0,5,5,77,1,,zzzz,,Pos,j,blue,MIRROR.ogg,MIRROR.mp29,78,0,CFD-BM-026-006-HC-resized.jpg,0,0,,HC,13,CFD-BM-026-006-HC-resized.jpg,CFD-BM-046-042-HC-resized.jpg,,,,,,,,,,,,,,,,,,,,,,,,,,,,,,,,,,,,,,,,,,,,,,,
,,,,,,,,,,,,,13570,2020-09-30_14h30.57.246,pmfbcont,2020.1.3,MacIntel,60,,,,,,,,,,,,,,,,,,,,,,,,,,,,,,,,,,,,,,f,1,0.642,13570,2020-09-30_14h30.57.246,pmfbcont,pmface-cont-black,7,,CFD-BM-023-039-F-resized.jpg,Neg,purple,0,f,0.642,space,0.315,space,0.315,0,6,6,87,1,,zzzz,,Neg,f,purple,MIRROR.ogg,MIRROR.mp39,88,0,CFD-BM-023-039-F-resized.jpg,0,0,,F,10,CFD-BM-023-039-F-resized.jpg,CFD-BM-039-044-F-resized.jpg,,,,,,,,,,,,,,,,,,,,,,,,,,,,,,,,,,,,,,,,,,,,,,,
,,,,,,,,,,,,,13570,2020-09-30_14h30.57.246,pmfbcont,2020.1.3,MacIntel,60,,,,,,,,,,,,,,,,,,,,,,,,,,,,,,,,,,,,,,f,1,0.943,13570,2020-09-30_14h30.57.246,pmfbcont,pmface-cont-black,8,,CFD-BM-026-041-F-resized.jpg,Neg,orange,0,f,0.943,space,0.352,space,0.352,0,7,7,90,1,,zzzz,,Neg,f,orange,MIRROR.ogg,MIRROR.mp42,91,0,CFD-BM-026-041-F-resized.jpg,0,0,,F,13,CFD-BM-026-041-F-resized.jpg,CFD-BM-046-063-F-resized.jpg,,,,,,,,,,,,,,,,,,,,,,,,,,,,,,,,,,,,,,,,,,,,,,,
,,,,,,,,,,,,,13570,2020-09-30_14h30.57.246,pmfbcont,2020.1.3,MacIntel,60,,,,,,,,,,,,,,,,,,,,,,,,,,,,,,,,,,,,,,j,1,0.658,13570,2020-09-30_14h30.57.246,pmfbcont,pmface-cont-black,9,,CFD-BF-002-006-HC-resized.jpg,Pos,blue,0,j,0.658,space,0.299,space,0.299,0,8,8,13,1,,cotifu,,Pos,j,blue,DRINK.ogg,DRINK.mp3,14,0,CFD-BF-002-006-HC-resized.jpg,0,0,,HC,1,CFD-BF-002-006-HC-resized.jpg,CFD-BF-014-005-HC-resized.jpg,,,,,,,,,,,,,,,,,,,,,,,,,,,,,,,,,,,,,,,,,,,,,,,
,,,,,,,,,,,,,13570,2020-09-30_14h30.57.246,pmfbcont,2020.1.3,MacIntel,60,,,,,,,,,,,,,,,,,,,,,,,,,,,,,,,,,,,,,,f,1,0.83,13570,2020-09-30_14h30.57.246,pmfbcont,pmface-cont-black,10,,CFD-BF-005-022-F-resized.jpg,Neg,green,0,f,0.83,space,0.336,space,0.336,0,9,9,28,1,,foraig,,Neg,f,green,FRONT.ogg,FRONT.mp3,29,0,CFD-BF-005-022-F-resized.jpg,0,0,,F,3,CFD-BF-005-022-F-resized.jpg,CFD-BF-037-043-F-resized.jpg,,,,,,,,,,,,,,,,,,,,,,,,,,,,,,,,,,,,,,,,,,,,,,,
,,,,,,,,,,,,,13570,2020-09-30_14h30.57.246,pmfbcont,2020.1.3,MacIntel,60,,,,,,,,,,,,,,,,,,,,,,,,,,,,,,,,,,,,,,f,1,1.526,13570,2020-09-30_14h30.57.246,pmfbcont,pmface-cont-black,11,,CFD-BM-024-104-F-resized.jpg,Neg,green,0,f,1.526,space,0.269,space,0.269,0,10,10,88,1,,zzzz,,Neg,f,green,MIRROR.ogg,MIRROR.mp40,89,0,CFD-BM-024-104-F-resized.jpg,0,0,,F,11,CFD-BM-024-104-F-resized.jpg,CFD-BM-041-030-F-resized.jpg,,,,,,,,,,,,,,,,,,,,,,,,,,,,,,,,,,,,,,,,,,,,,,,
,,,,,,,,,,,,,13570,2020-09-30_14h30.57.246,pmfbcont,2020.1.3,MacIntel,60,,,,,,,,,,,,,,,,,,,,,,,,,,,,,,,,,,,,,,j,1,0.63,13570,2020-09-30_14h30.57.246,pmfbcont,pmface-cont-black,12,,CFD-BF-050-004-HO-resized.jpg,Pos,green,0,j,0.63,space,0.267,space,0.267,0,11,11,8,1,,haircut,,Pos,j,green,DOCTOR.ogg,DOCTOR.mp3,9,0,CFD-BF-050-004-HO-resized.jpg,0,0,,HO,9,CFD-BF-050-004-HO-resized.jpg,CFD-BF-023-003-HO-resized.jpg,,,,,,,,,,,,,,,,,,,,,,,,,,,,,,,,,,,,,,,,,,,,,,,
,,,,,,,,,,,,,13570,2020-09-30_14h30.57.246,pmfbcont,2020.1.3,MacIntel,60,,,,,,,,,,,,,,,,,,,,,,,,,,,,,,,,,,,,,,j,1,0.611,13570,2020-09-30_14h30.57.246,pmfbcont,pmface-cont-black,13,,CFD-BF-013-003-HO-resized.jpg,Pos,purple,0,j,0.611,space,0.236,space,0.236,0,12,12,7,1,,diamond,,Pos,j,purple,DIRTY.ogg,DIRTY.mp3,8,0,CFD-BF-013-003-HO-resized.jpg,0,0,,HO,8,CFD-BF-013-003-HO-resized.jpg,CFD-BF-021-014-HO-resized.jpg,,,,,,,,,,,,,,,,,,,,,,,,,,,,,,,,,,,,,,,,,,,,,,,
,,,,,,,,,,,,,13570,2020-09-30_14h30.57.246,pmfbcont,2020.1.3,MacIntel,60,,,,,,,,,,,,,,,,,,,,,,,,,,,,,,,,,,,,,,j,0,1.31,13570,2020-09-30_14h30.57.246,pmfbcont,pmface-cont-black,14,,CFD-BF-004-002-F-resized.jpg,Neg,purple,0,j,1.31,space,0.189,space,0.189,0,13,13,27,1,,ghort,,Neg,f,purple,FRIEND.ogg,FRIEND.mp3,28,0,CFD-BF-004-002-F-resized.jpg,0,0,,F,2,CFD-BF-004-002-F-resized.jpg,CFD-BF-015-025-F-resized.jpg,,,,,,,,,,,,,,,,,,,,,,,,,,,,,,,,,,,,,,,,,,,,,,,
,,,,,,,,,,,,,13570,2020-09-30_14h30.57.246,pmfbcont,2020.1.3,MacIntel,60,,,,,,,,,,,,,,,,,,,,,,,,,,,,,,,,,,,,,,j,1,0.741,13570,2020-09-30_14h30.57.246,pmfbcont,pmface-cont-black,15,,CFD-BF-041-038-HC-resized.jpg,Pos,green,0,j,0.741,space,0.218,space,0.218,0,14,14,24,1,,knife,,Pos,j,green,FLOWER.ogg,FLOWER.mp3,25,0,CFD-BF-041-038-HC-resized.jpg,0,0,,HC,12,CFD-BF-041-038-HC-resized.jpg,CFD-BF-027-013-HC-resized.jpg,,,,,,,,,,,,,,,,,,,,,,,,,,,,,,,,,,,,,,,,,,,,,,,
,,,,,,,,,,,,,13570,2020-09-30_14h30.57.246,pmfbcont,2020.1.3,MacIntel,60,,,,,,,,,,,,,,,,,,,,,,,,,,,,,,,,,,,,,,f,1,0.791,13570,2020-09-30_14h30.57.246,pmfbcont,pmface-cont-black,16,,CFD-BM-021-026-A-resized.jpg,Neg,orange,0,f,0.791,space,0.22,space,0.22,0,15,15,98,1,,zzzz,,Neg,f,orange,MIRROR.ogg,MIRROR.mp50,99,0,CFD-BM-021-026-A-resized.jpg,0,0,,A,8,CFD-BM-021-026-A-resized.jpg,CFD-BM-037-041-A-resized.jpg,,,,,,,,,,,,,,,,,,,,,,,,,,,,,,,,,,,,,,,,,,,,,,,
,,,,,,,,,,,,,13570,2020-09-30_14h30.57.246,pmfbcont,2020.1.3,MacIntel,60,,,,,,,,,,,,,,,,,,,,,,,,,,,,,,,,,,,,,,f,1,0.827,13570,2020-09-30_14h30.57.246,pmfbcont,pmface-cont-black,17,,CFD-BF-045-051-F-resized.jpg,Neg,green,0,f,0.827,space,0.234,space,0.234,0,16,16,36,1,,door,,Neg,f,green,GLOBE.ogg,GLOBE.mp3,37,0,CFD-BF-045-051-F-resized.jpg,0,0,,F,11,CFD-BF-045-051-F-resized.jpg,CFD-BF-025-020-F-resized.jpg,,,,,,,,,,,,,,,,,,,,,,,,,,,,,,,,,,,,,,,,,,,,,,,
,,,,,,,,,,,,,13570,2020-09-30_14h30.57.246,pmfbcont,2020.1.3,MacIntel,60,,,,,,,,,,,,,,,,,,,,,,,,,,,,,,,,,,,,,,j,0,0.611,13570,2020-09-30_14h30.57.246,pmfbcont,pmface-cont-black,18,,CFD-BF-013-017-A-resized.jpg,Neg,orange,0,j,0.611,space,0.168,space,0.168,0,17,17,46,1,,qiogue,,Neg,f,orange,MEMBER.ogg,MEMBER.mp3,47,0,CFD-BF-013-017-A-resized.jpg,0,0,,A,8,CFD-BF-013-017-A-resized.jpg,CFD-BF-021-016-A-resized.jpg,,,,,,,,,,,,,,,,,,,,,,,,,,,,,,,,,,,,,,,,,,,,,,,
,,,,,,,,,,,,,13570,2020-09-30_14h30.57.246,pmfbcont,2020.1.3,MacIntel,60,,,,,,,,,,,,,,,,,,,,,,,,,,,,,,,,,,,,,,j,1,0.598,13570,2020-09-30_14h30.57.246,pmfbcont,pmface-cont-black,19,,CFD-BM-020-024-HC-resized.jpg,Pos,purple,0,j,0.598,space,0.205,space,0.205,0,18,18,71,1,,zzzz,,Pos,j,purple,MIRROR.ogg,MIRROR.mp23,72,0,CFD-BM-020-024-HC-resized.jpg,0,0,,HC,7,CFD-BM-020-024-HC-resized.jpg,CFD-BM-036-007-HC-resized.jpg,,,,,,,,,,,,,,,,,,,,,,,,,,,,,,,,,,,,,,,,,,,,,,,
,,,,,,,,,,,,,13570,2020-09-30_14h30.57.246,pmfbcont,2020.1.3,MacIntel,60,,,,,,,,,,,,,,,,,,,,,,,,,,,,,,,,,,,,,,j,1,0.593,13570,2020-09-30_14h30.57.246,pmfbcont,pmface-cont-black,20,,CFD-BM-019-008-HC-resized.jpg,Pos,orange,0,j,0.593,space,0.183,space,0.183,0,19,19,70,1,,zzzz,,Pos,j,orange,MIRROR.ogg,MIRROR.mp22,71,0,CFD-BM-019-008-HC-resized.jpg,0,0,,HC,6,CFD-BM-019-008-HC-resized.jpg,CFD-BM-034-035-HC-resized.jpg,,,,,,,,,,,,,,,,,,,,,,,,,,,,,,,,,,,,,,,,,,,,,,,
,,,,,,,,,,,,,13570,2020-09-30_14h30.57.246,pmfbcont,2020.1.3,MacIntel,60,,,,,,,,,,,,,,,,,,,,,,,,,,,,,,,,,,,,,,j,1,0.546,13570,2020-09-30_14h30.57.246,pmfbcont,pmface-cont-black,21,,CFD-BM-018-004-HC-resized.jpg,Pos,blue,0,j,0.546,space,0.171,space,0.171,0,20,20,69,1,,zzzz,,Pos,j,blue,MIRROR.ogg,MIRROR.mp21,70,0,CFD-BM-018-004-HC-resized.jpg,0,0,,HC,5,CFD-BM-018-004-HC-resized.jpg,CFD-BM-033-026-HC-resized.jpg,,,,,,,,,,,,,,,,,,,,,,,,,,,,,,,,,,,,,,,,,,,,,,,
,,,,,,,,,,,,,13570,2020-09-30_14h30.57.246,pmfbcont,2020.1.3,MacIntel,60,,,,,,,,,,,,,,,,,,,,,,,,,,,,,,,,,,,,,,j,1,0.713,13570,2020-09-30_14h30.57.246,pmfbcont,pmface-cont-black,22,,CFD-BM-015-017-HC-resized.jpg,Pos,green,0,j,0.713,space,0.184,space,0.184,0,21,21,68,1,,zzzz,,Pos,j,green,MIRROR.ogg,MIRROR.mp20,69,0,CFD-BM-015-017-HC-resized.jpg,0,0,,HC,4,CFD-BM-015-017-HC-resized.jpg,CFD-BM-032-010-HC-resized.jpg,,,,,,,,,,,,,,,,,,,,,,,,,,,,,,,,,,,,,,,,,,,,,,,
,,,,,,,,,,,,,13570,2020-09-30_14h30.57.246,pmfbcont,2020.1.3,MacIntel,60,,,,,,,,,,,,,,,,,,,,,,,,,,,,,,,,,,,,,,j,1,0.591,13570,2020-09-30_14h30.57.246,pmfbcont,pmface-cont-black,23,,CFD-BM-019-004-HO-resized.jpg,Pos,blue,0,j,0.591,space,0.151,space,0.151,0,22,22,57,1,,zzzz,,Pos,j,blue,MIRROR.ogg,MIRROR.mp9,58,0,CFD-BM-019-004-HO-resized.jpg,0,0,,HO,6,CFD-BM-019-004-HO-resized.jpg,CFD-BM-034-033-HO-resized.jpg,,,,,,,,,,,,,,,,,,,,,,,,,,,,,,,,,,,,,,,,,,,,,,,
,,,,,,,,,,,,,13570,2020-09-30_14h30.57.246,pmfbcont,2020.1.3,MacIntel,60,,,,,,,,,,,,,,,,,,,,,,,,,,,,,,,,,,,,,,j,1,0.59,13570,2020-09-30_14h30.57.246,pmfbcont,pmface-cont-black,24,,CFD-BF-040-010-HC-resized.jpg,Pos,blue,0,j,0.59,space,0.137,space,0.137,0,23,23,25,1,,gruut,,Pos,j,blue,FREELY.ogg,FREELY.mp3,26,0,CFD-BF-040-010-HC-resized.jpg,0,0,,HC,13,CFD-BF-040-010-HC-resized.jpg,CFD-BF-028-020-HC-resized.jpg,,,,,,,,,,,,,,,,,,,,,,,,,,,,,,,,,,,,,,,,,,,,,,,
,,,,,,,,,,,,,13570,2020-09-30_14h30.57.246,pmfbcont,2020.1.3,MacIntel,60,,,,,,,,,,,,,,,,,,,,,,,,,,,,,,,,,,,,,,j,1,0.709,13570,2020-09-30_14h30.57.246,pmfbcont,pmface-cont-black,25,,CFD-BF-045-064-HC-resized.jpg,Pos,purple,0,j,0.709,space,0.32,space,0.32,0,24,24,23,1,,seed,,Pos,j,purple,FLOOR.ogg,FLOOR.mp3,24,0,CFD-BF-045-064-HC-resized.jpg,0,0,,HC,11,CFD-BF-045-064-HC-resized.jpg,CFD-BF-025-018-HC-resized.jpg,,,,,,,,,,,,,,,,,,,,,,,,,,,,,,,,,,,,,,,,,,,,,,,
,,,,,,,,,,,,,13570,2020-09-30_14h30.57.246,pmfbcont,2020.1.3,MacIntel,60,,,,,,,,,,,,,,,,,,,,,,,,,,,,,,,,,,,,,,f,1,0.76,13570,2020-09-30_14h30.57.246,pmfbcont,pmface-cont-black,26,,CFD-BF-050-036-F-resized.jpg,Neg,orange,0,f,0.76,space,0.175,space,0.175,0,25,25,34,1,,boulder,,Neg,f,orange,GLOVE.ogg,GLOVE.mp3,35,0,CFD-BF-050-036-F-resized.jpg,0,0,,F,9,CFD-BF-050-036-F-resized.jpg,CFD-BF-023-014-F-resized.jpg,,,,,,,,,,,,,,,,,,,,,,,,,,,,,,,,,,,,,,,,,,,,,,,
,,,,,,,,,,,,,13570,2020-09-30_14h30.57.246,pmfbcont,2020.1.3,MacIntel,60,,,,,,,,,,,,,,,,,,,,,,,,,,,,,,,,,,,,,,j,1,0.641,13570,2020-09-30_14h30.57.246,pmfbcont,pmface-cont-black,27,,CFD-BM-022-027-HO-resized.jpg,Pos,green,0,j,0.641,space,0.15,space,0.15,0,26,26,60,1,,zzzz,,Pos,j,green,MIRROR.ogg,MIRROR.mp12,61,0,CFD-BM-022-027-HO-resized.jpg,0,0,,HO,9,CFD-BM-022-027-HO-resized.jpg,CFD-BM-038-007-HO-resized.jpg,,,,,,,,,,,,,,,,,,,,,,,,,,,,,,,,,,,,,,,,,,,,,,,
,,,,,,,,,,,,,13570,2020-09-30_14h30.57.246,pmfbcont,2020.1.3,MacIntel,60,,,,,,,,,,,,,,,,,,,,,,,,,,,,,,,,,,,,,,f,1,0.561,13570,2020-09-30_14h30.57.246,pmfbcont,pmface-cont-black,28,,CFD-BF-004-021-A-resized.jpg,Neg,green,0,f,0.561,space,0.168,space,0.168,0,27,27,40,1,,crayon,,Neg,f,green,LUNCH.ogg,LUNCH.mp3,41,0,CFD-BF-004-021-A-resized.jpg,0,0,,A,2,CFD-BF-004-021-A-resized.jpg,CFD-BF-015-022-A-resized.jpg,,,,,,,,,,,,,,,,,,,,,,,,,,,,,,,,,,,,,,,,,,,,,,,
,,,,,,,,,,,,,13570,2020-09-30_14h30.57.246,pmfbcont,2020.1.3,MacIntel,60,,,,,,,,,,,,,,,,,,,,,,,,,,,,,,,,,,,,,,f,1,0.856,13570,2020-09-30_14h30.57.246,pmfbcont,pmface-cont-black,29,,CFD-BF-002-022-F-resized.jpg,Neg,orange,0,f,0.856,space,0.188,space,0.188,0,28,28,26,1,,cafin,,Neg,f,orange,FRESH.ogg,FRESH.mp3,27,0,CFD-BF-002-022-F-resized.jpg,0,0,,F,1,CFD-BF-002-022-F-resized.jpg,CFD-BF-014-021-F-resized.jpg,,,,,,,,,,,,,,,,,,,,,,,,,,,,,,,,,,,,,,,,,,,,,,,
,,,,,,,,,,,,,13570,2020-09-30_14h30.57.246,pmfbcont,2020.1.3,MacIntel,60,,,,,,,,,,,,,,,,,,,,,,,,,,,,,,,,,,,,,,j,1,0.71,13570,2020-09-30_14h30.57.246,pmfbcont,pmface-cont-black,30,,CFD-BM-025-004-HC-resized.jpg,Pos,green,0,j,0.71,space,0.15,space,0.15,0,29,29,76,1,,zzzz,,Pos,j,green,MIRROR.ogg,MIRROR.mp28,77,0,CFD-BM-025-004-HC-resized.jpg,0,0,,HC,12,CFD-BM-025-004-HC-resized.jpg,CFD-BM-045-057-HC-resized.jpg,,,,,,,,,,,,,,,,,,,,,,,,,,,,,,,,,,,,,,,,,,,,,,,
,,,,,,,,,,,,,13570,2020-09-30_14h30.57.246,pmfbcont,2020.1.3,MacIntel,60,,,,,,,,,,,,,,,,,,,,,,,,,,,,,,,,,,,,,,f,1,0.879,13570,2020-09-30_14h30.57.246,pmfbcont,pmface-cont-black,31,,CFD-BF-002-018-A-resized.jpg,Neg,purple,0,f,0.879,space,0.203,space,0.203,0,30,30,39,1,,battery,,Neg,f,purple,GROUP.ogg,GROUP.mp3,40,0,CFD-BF-002-018-A-resized.jpg,0,0,,A,1,CFD-BF-002-018-A-resized.jpg,CFD-BF-014-013-A-resized.jpg,,,,,,,,,,,,,,,,,,,,,,,,,,,,,,,,,,,,,,,,,,,,,,,
,,,,,,,,,,,,,13570,2020-09-30_14h30.57.246,pmfbcont,2020.1.3,MacIntel,60,,,,,,,,,,,,,,,,,,,,,,,,,,,,,,,,,,,,,,f,1,0.898,13570,2020-09-30_14h30.57.246,pmfbcont,pmface-cont-black,32,,CFD-BF-010-019-A-resized.jpg,Neg,green,0,f,0.898,space,0.169,space,0.169,0,31,31,44,1,,jinoc,,Neg,f,green,MATURE.ogg,MATURE.mp3,45,0,CFD-BF-010-019-A-resized.jpg,0,0,,A,6,CFD-BF-010-019-A-resized.jpg,CFD-BF-036-020-A-resized.jpg,,,,,,,,,,,,,,,,,,,,,,,,,,,,,,,,,,,,,,,,,,,,,,,
,,,,,,,,,,,,,13570,2020-09-30_14h30.57.246,pmfbcont,2020.1.3,MacIntel,60,,,,,,,,,,,,,,,,,,,,,,,,,,,,,,,,,,,,,,f,1,1.055,13570,2020-09-30_14h30.57.246,pmfbcont,pmface-cont-black,33,,CFD-BF-008-012-A-resized.jpg,Neg,purple,0,f,1.055,space,0.15,space,0.15,0,32,32,43,1,,picture,,Neg,f,purple,MATTER.ogg,MATTER.mp3,44,0,CFD-BF-008-012-A-resized.jpg,0,0,,A,5,CFD-BF-008-012-A-resized.jpg,CFD-BF-018-019-A-resized.jpg,,,,,,,,,,,,,,,,,,,,,,,,,,,,,,,,,,,,,,,,,,,,,,,
,,,,,,,,,,,,,13570,2020-09-30_14h30.57.246,pmfbcont,2020.1.3,MacIntel,60,,,,,,,,,,,,,,,,,,,,,,,,,,,,,,,,,,,,,,j,1,0.557,13570,2020-09-30_14h30.57.246,pmfbcont,pmface-cont-black,34,,CFD-BF-011-005-HC-resized.jpg,Pos,purple,0,j,0.557,space,0.087,space,0.087,0,33,33,19,1,,kife,,Pos,j,purple,FIRST.ogg,FIRST.mp3,20,0,CFD-BF-011-005-HC-resized.jpg,0,0,,HC,7,CFD-BF-011-005-HC-resized.jpg,CFD-BF-031-048-HC-resized.jpg,,,,,,,,,,,,,,,,,,,,,,,,,,,,,,,,,,,,,,,,,,,,,,,
,,,,,,,,,,,,,13570,2020-09-30_14h30.57.246,pmfbcont,2020.1.3,MacIntel,60,,,,,,,,,,,,,,,,,,,,,,,,,,,,,,,,,,,,,,f,1,1.307,13570,2020-09-30_14h30.57.246,pmfbcont,pmface-cont-black,35,,CFD-BM-011-013-F-resized.jpg,Neg,purple,0,f,1.307,space,0.1,space,0.1,0,34,34,79,1,,zzzz,,Neg,f,purple,MIRROR.ogg,MIRROR.mp31,80,0,CFD-BM-011-013-F-resized.jpg,0,0,,F,2,CFD-BM-011-013-F-resized.jpg,CFD-BM-030-065-F-resized.jpg,,,,,,,,,,,,,,,,,,,,,,,,,,,,,,,,,,,,,,,,,,,,,,,
,,,,,,,,,,,,,13570,2020-09-30_14h30.57.246,pmfbcont,2020.1.3,MacIntel,60,,,,,,,,,,,,,,,,,,,,,,,,,,,,,,,,,,,,,,j,1,0.858,13570,2020-09-30_14h30.57.246,pmfbcont,pmface-cont-black,36,,CFD-BM-013-004-HO-resized.jpg,Pos,orange,0,j,0.858,space,1.701,space,1.701,0,35,35,54,1,,zzzz,,Pos,j,orange,MIRROR.ogg,MIRROR.mp6,55,0,CFD-BM-013-004-HO-resized.jpg,0,0,,HO,3,CFD-BM-013-004-HO-resized.jpg,CFD-BM-031-004-HO-resized.jpg,,,,,,,,,,,,,,,,,,,,,,,,,,,,,,,,,,,,,,,,,,,,,,,
,,,,,,,,,,,,,13570,2020-09-30_14h30.57.246,pmfbcont,2020.1.3,MacIntel,60,,,,,,,,,,,,,,,,,,,,,,,,,,,,,,,,,,,,,,j,1,0.63,13570,2020-09-30_14h30.57.246,pmfbcont,pmface-cont-black,37,,CFD-BM-024-061-HO-resized.jpg,Pos,orange,0,j,0.63,space,0.204,space,0.204,0,36,36,62,1,,zzzz,,Pos,j,orange,MIRROR.ogg,MIRROR.mp14,63,0,CFD-BM-024-061-HO-resized.jpg,0,0,,HO,11,CFD-BM-024-061-HO-resized.jpg,CFD-BM-041-041-HO-resized.jpg,,,,,,,,,,,,,,,,,,,,,,,,,,,,,,,,,,,,,,,,,,,,,,,
,,,,,,,,,,,,,13570,2020-09-30_14h30.57.246,pmfbcont,2020.1.3,MacIntel,60,,,,,,,,,,,,,,,,,,,,,,,,,,,,,,,,,,,,,,f,1,0.592,13570,2020-09-30_14h30.57.246,pmfbcont,pmface-cont-black,38,,CFD-BM-011-020-A-resized.jpg,Neg,green,0,f,0.592,space,0.214,space,0.214,0,37,37,92,1,,zzzz,,Neg,f,green,MIRROR.ogg,MIRROR.mp44,93,0,CFD-BM-011-020-A-resized.jpg,0,0,,A,2,CFD-BM-011-020-A-resized.jpg,CFD-BM-030-041-A-resized.jpg,,,,,,,,,,,,,,,,,,,,,,,,,,,,,,,,,,,,,,,,,,,,,,,
,,,,,,,,,,,,,13570,2020-09-30_14h30.57.246,pmfbcont,2020.1.3,MacIntel,60,,,,,,,,,,,,,,,,,,,,,,,,,,,,,,,,,,,,,,f,1,0.759,13570,2020-09-30_14h30.57.246,pmfbcont,pmface-cont-black,39,,CFD-BF-005-020-A-resized.jpg,Neg,blue,0,f,0.759,space,0.221,space,0.221,0,38,38,41,1,,skafast,,Neg,f,blue,MAJOR.ogg,MAJOR.mp3,42,0,CFD-BF-005-020-A-resized.jpg,0,0,,A,3,CFD-BF-005-020-A-resized.jpg,CFD-BF-037-013-A-resized.jpg,,,,,,,,,,,,,,,,,,,,,,,,,,,,,,,,,,,,,,,,,,,,,,,
,,,,,,,,,,,,,13570,2020-09-30_14h30.57.246,pmfbcont,2020.1.3,MacIntel,60,,,,,,,,,,,,,,,,,,,,,,,,,,,,,,,,,,,,,,f,1,0.675,13570,2020-09-30_14h30.57.246,pmfbcont,pmface-cont-black,40,,CFD-BF-050-012-A-resized.jpg,Neg,purple,0,f,0.675,space,0.201,space,0.201,0,39,39,47,1,,lunch,,Neg,f,purple,MEMORY.ogg,MEMORY.mp3,48,0,CFD-BF-050-012-A-resized.jpg,0,0,,A,9,CFD-BF-050-012-A-resized.jpg,CFD-BF-023-013-A-resized.jpg,,,,,,,,,,,,,,,,,,,,,,,,,,,,,,,,,,,,,,,,,,,,,,,
,,,,,,,,,,,,,13570,2020-09-30_14h30.57.246,pmfbcont,2020.1.3,MacIntel,60,,,,,,,,,,,,,,,,,,,,,,,,,,,,,,,,,,,,,,j,1,0.555,13570,2020-09-30_14h30.57.246,pmfbcont,pmface-cont-black,41,,CFD-BF-006-008-HC-resized.jpg,Pos,green,0,j,0.555,space,0.217,space,0.217,0,40,40,16,1,,toaster,,Pos,j,green,FAMOUS.ogg,FAMOUS.mp3,17,0,CFD-BF-006-008-HC-resized.jpg,0,0,,HC,4,CFD-BF-006-008-HC-resized.jpg,CFD-BF-017-007-HC-resized.jpg,,,,,,,,,,,,,,,,,,,,,,,,,,,,,,,,,,,,,,,,,,,,,,,
,,,,,,,,,,,,,13570,2020-09-30_14h30.57.246,pmfbcont,2020.1.3,MacIntel,60,,,,,,,,,,,,,,,,,,,,,,,,,,,,,,,,,,,,,,j,1,1.012,13570,2020-09-30_14h30.57.246,pmfbcont,pmface-cont-black,42,,CFD-BM-024-113-HC-resized.jpg,Pos,purple,0,j,1.012,space,0.164,space,0.164,0,41,41,75,1,,zzzz,,Pos,j,purple,MIRROR.ogg,MIRROR.mp27,76,0,CFD-BM-024-113-HC-resized.jpg,0,0,,HC,11,CFD-BM-024-113-HC-resized.jpg,CFD-BM-041-045-HC-resized.jpg,,,,,,,,,,,,,,,,,,,,,,,,,,,,,,,,,,,,,,,,,,,,,,,
,,,,,,,,,,,,,13570,2020-09-30_14h30.57.246,pmfbcont,2020.1.3,MacIntel,60,,,,,,,,,,,,,,,,,,,,,,,,,,,,,,,,,,,,,,j,1,0.706,13570,2020-09-30_14h30.57.246,pmfbcont,pmface-cont-black,43,,CFD-BM-015-016-HO-resized.jpg,Pos,purple,0,j,0.706,space,0.219,space,0.219,0,42,42,55,1,,zzzz,,Pos,j,purple,MIRROR.ogg,MIRROR.mp7,56,0,CFD-BM-015-016-HO-resized.jpg,0,0,,HO,4,CFD-BM-015-016-HO-resized.jpg,CFD-BM-032-007-HO-resized.jpg,,,,,,,,,,,,,,,,,,,,,,,,,,,,,,,,,,,,,,,,,,,,,,,
,,,,,,,,,,,,,13570,2020-09-30_14h30.57.246,pmfbcont,2020.1.3,MacIntel,60,,,,,,,,,,,,,,,,,,,,,,,,,,,,,,,,,,,,,,f,1,0.672,13570,2020-09-30_14h30.57.246,pmfbcont,pmface-cont-black,44,,CFD-BF-045-068-A-resized.jpg,Neg,blue,0,f,0.672,space,0.171,space,0.171,0,43,43,49,1,,fist,,Neg,f,blue,METHOD.ogg,METHOD.mp3,50,0,CFD-BF-045-068-A-resized.jpg,0,0,,A,11,CFD-BF-045-068-A-resized.jpg,CFD-BF-025-011-A-resized.jpg,,,,,,,,,,,,,,,,,,,,,,,,,,,,,,,,,,,,,,,,,,,,,,,
,,,,,,,,,,,,,13570,2020-09-30_14h30.57.246,pmfbcont,2020.1.3,MacIntel,60,,,,,,,,,,,,,,,,,,,,,,,,,,,,,,,,,,,,,,f,1,0.891,13570,2020-09-30_14h30.57.246,pmfbcont,pmface-cont-black,45,,CFD-BM-022-014-F-resized.jpg,Neg,orange,0,f,0.891,space,0.2,space,0.2,0,44,44,86,1,,zzzz,,Neg,f,orange,MIRROR.ogg,MIRROR.mp38,87,0,CFD-BM-022-014-F-resized.jpg,0,0,,F,9,CFD-BM-022-014-F-resized.jpg,CFD-BM-038-017-F-resized.jpg,,,,,,,,,,,,,,,,,,,,,,,,,,,,,,,,,,,,,,,,,,,,,,,
,,,,,,,,,,,,,13570,2020-09-30_14h30.57.246,pmfbcont,2020.1.3,MacIntel,60,,,,,,,,,,,,,,,,,,,,,,,,,,,,,,,,,,,,,,j,1,0.676,13570,2020-09-30_14h30.57.246,pmfbcont,pmface-cont-black,46,,CFD-BM-018-007-HO-resized.jpg,Pos,green,0,j,0.676,space,0.173,space,0.173,0,45,45,56,1,,zzzz,,Pos,j,green,MIRROR.ogg,MIRROR.mp8,57,0,CFD-BM-018-007-HO-resized.jpg,0,0,,HO,5,CFD-BM-018-007-HO-resized.jpg,CFD-BM-033-029-HO-resized.jpg,,,,,,,,,,,,,,,,,,,,,,,,,,,,,,,,,,,,,,,,,,,,,,,
,,,,,,,,,,,,,13570,2020-09-30_14h30.57.246,pmfbcont,2020.1.3,MacIntel,60,,,,,,,,,,,,,,,,,,,,,,,,,,,,,,,,,,,,,,j,1,0.561,13570,2020-09-30_14h30.57.246,pmfbcont,pmface-cont-black,47,,CFD-BF-004-008-HC-resized.jpg,Pos,orange,0,j,0.561,space,0.218,space,0.218,0,46,46,14,1,,mogeer,,Pos,j,orange,EXTRA.ogg,EXTRA.mp3,15,0,CFD-BF-004-008-HC-resized.jpg,0,0,,HC,2,CFD-BF-004-008-HC-resized.jpg,CFD-BF-015-007-HC-resized.jpg,,,,,,,,,,,,,,,,,,,,,,,,,,,,,,,,,,,,,,,,,,,,,,,
,,,,,,,,,,,,,13570,2020-09-30_14h30.57.246,pmfbcont,2020.1.3,MacIntel,60,,,,,,,,,,,,,,,,,,,,,,,,,,,,,,,,,,,,,,f,1,0.775,13570,2020-09-30_14h30.57.246,pmfbcont,pmface-cont-black,48,,CFD-BM-018-040-F-resized.jpg,Neg,orange,0,f,0.775,space,0.215,space,0.215,0,47,47,82,1,,zzzz,,Neg,f,orange,MIRROR.ogg,MIRROR.mp34,83,0,CFD-BM-018-040-F-resized.jpg,0,0,,F,5,CFD-BM-018-040-F-resized.jpg,CFD-BM-033-038-F-resized.jpg,,,,,,,,,,,,,,,,,,,,,,,,,,,,,,,,,,,,,,,,,,,,,,,
,,,,,,,,,,,,,13570,2020-09-30_14h30.57.246,pmfbcont,2020.1.3,MacIntel,60,,,,,,,,,,,,,,,,,,,,,,,,,,,,,,,,,,,,,,f,1,0.712,13570,2020-09-30_14h30.57.246,pmfbcont,pmface-cont-black,49,,CFD-BF-040-081-F-resized.jpg,Neg,orange,0,f,0.712,space,0.202,space,0.202,0,48,48,38,1,,heakal,,Neg,f,orange,GROUND.ogg,GROUND.mp3,39,0,CFD-BF-040-081-F-resized.jpg,0,0,,F,13,CFD-BF-040-081-F-resized.jpg,CFD-BF-028-029-F-resized.jpg,,,,,,,,,,,,,,,,,,,,,,,,,,,,,,,,,,,,,,,,,,,,,,,
,,,,,,,,,,,,,13570,2020-09-30_14h30.57.246,pmfbcont,2020.1.3,MacIntel,60,,,,,,,,,,,,,,,,,,,,,,,,,,,,,,,,,,,,,,f,1,0.725,13570,2020-09-30_14h30.57.246,pmfbcont,pmface-cont-black,50,,CFD-BF-010-015-F-resized.jpg,Neg,purple,0,f,0.725,space,0.2,space,0.2,0,49,49,31,1,,museum,,Neg,f,purple,GARDEN.ogg,GARDEN.mp3,32,0,CFD-BF-010-015-F-resized.jpg,0,0,,F,6,CFD-BF-010-015-F-resized.jpg,CFD-BF-036-046-F-resized.jpg,,,,,,,,,,,,,,,,,,,,,,,,,,,,,,,,,,,,,,,,,,,,,,,
,,,,,,,,,,,,,13570,2020-09-30_14h30.57.246,pmfbcont,2020.1.3,MacIntel,60,,,,,,,,,,,,,,,,,,,,,,,,,,,,,,,,,,,,,,j,1,0.563,13570,2020-09-30_14h30.57.246,pmfbcont,pmface-cont-black,51,,CFD-BM-021-022-HO-resized.jpg,Pos,purple,0,j,0.563,space,0.238,space,0.238,0,50,50,59,1,,zzzz,,Pos,j,purple,MIRROR.ogg,MIRROR.mp11,60,0,CFD-BM-021-022-HO-resized.jpg,0,0,,HO,8,CFD-BM-021-022-HO-resized.jpg,CFD-BM-037-036-HO-resized.jpg,,,,,,,,,,,,,,,,,,,,,,,,,,,,,,,,,,,,,,,,,,,,,,,
,,,,,,,,,,,,,13570,2020-09-30_14h30.57.246,pmfbcont,2020.1.3,MacIntel,60,,,,,,,,,,,,,,,,,,,,,,,,,,,,,,,,,,,,,,f,1,1.01,13570,2020-09-30_14h30.57.246,pmfbcont,pmface-cont-black,52,,CFD-BM-002-002-F-resized.jpg,Neg,orange,0,f,1.01,space,0.168,space,0.168,0,51,51,78,1,,zzzz,,Neg,f,orange,MIRROR.ogg,MIRROR.mp30,79,0,CFD-BM-002-002-F-resized.jpg,0,0,,F,1,CFD-BM-002-002-F-resized.jpg,CFD-BM-028-050-F-resized.jpg,,,,,,,,,,,,,,,,,,,,,,,,,,,,,,,,,,,,,,,,,,,,,,,
,,,,,,,,,,,,,13570,2020-09-30_14h30.57.246,pmfbcont,2020.1.3,MacIntel,60,,,,,,,,,,,,,,,,,,,,,,,,,,,,,,,,,,,,,,j,1,0.647,13570,2020-09-30_14h30.57.246,pmfbcont,pmface-cont-black,53,,CFD-BM-023-006-HO-resized.jpg,Pos,blue,0,j,0.647,space,0.191,space,0.191,0,52,52,61,1,,zzzz,,Pos,j,blue,MIRROR.ogg,MIRROR.mp13,62,0,CFD-BM-023-006-HO-resized.jpg,0,0,,HO,10,CFD-BM-023-006-HO-resized.jpg,CFD-BM-039-034-HO-resized.jpg,,,,,,,,,,,,,,,,,,,,,,,,,,,,,,,,,,,,,,,,,,,,,,,
,,,,,,,,,,,,,13570,2020-09-30_14h30.57.246,pmfbcont,2020.1.3,MacIntel,60,,,,,,,,,,,,,,,,,,,,,,,,,,,,,,,,,,,,,,j,1,0.81,13570,2020-09-30_14h30.57.246,pmfbcont,pmface-cont-black,54,,CFD-BF-002-004-HO-resized.jpg,Pos,green,0,j,0.81,space,0.2,space,0.2,0,53,53,0,1,,wouble,,Pos,j,green,COUNT.ogg,COUNT.mp3,1,0,CFD-BF-002-004-HO-resized.jpg,0,0,,HO,1,CFD-BF-002-004-HO-resized.jpg,CFD-BF-014-004-HO-resized.jpg,,,,,,,,,,,,,,,,,,,,,,,,,,,,,,,,,,,,,,,,,,,,,,,
,,,,,,,,,,,,,13570,2020-09-30_14h30.57.246,pmfbcont,2020.1.3,MacIntel,60,,,,,,,,,,,,,,,,,,,,,,,,,,,,,,,,,,,,,,j,1,0.772,13570,2020-09-30_14h30.57.246,pmfbcont,pmface-cont-black,55,,CFD-BM-011-019-HC-resized.jpg,Pos,orange,0,j,0.772,space,0.186,space,0.186,0,54,54,66,1,,zzzz,,Pos,j,orange,MIRROR.ogg,MIRROR.mp18,67,0,CFD-BM-011-019-HC-resized.jpg,0,0,,HC,2,CFD-BM-011-019-HC-resized.jpg,CFD-BM-030-008-HC-resized.jpg,,,,,,,,,,,,,,,,,,,,,,,,,,,,,,,,,,,,,,,,,,,,,,,
,,,,,,,,,,,,,13570,2020-09-30_14h30.57.246,pmfbcont,2020.1.3,MacIntel,60,,,,,,,,,,,,,,,,,,,,,,,,,,,,,,,,,,,,,,f,1,0.795,13570,2020-09-30_14h30.57.246,pmfbcont,pmface-cont-black,56,,CFD-BM-025-045-A-resized.jpg,Neg,orange,0,f,0.795,space,0.201,space,0.201,0,55,55,102,1,,zzzz,,Neg,f,orange,MIRROR.ogg,MIRROR.mp54,103,0,CFD-BM-025-045-A-resized.jpg,0,0,,A,12,CFD-BM-025-045-A-resized.jpg,CFD-BM-045-061-A-resized.jpg,,,,,,,,,,,,,,,,,,,,,,,,,,,,,,,,,,,,,,,,,,,,,,,
,,,,,,,,,,,,,13570,2020-09-30_14h30.57.246,pmfbcont,2020.1.3,MacIntel,60,,,,,,,,,,,,,,,,,,,,,,,,,,,,,,,,,,,,,,f,1,0.643,13570,2020-09-30_14h30.57.246,pmfbcont,pmface-cont-black,57,,CFD-BF-049-039-A-resized.jpg,Neg,green,0,f,0.643,space,0.237,space,0.237,0,56,56,48,1,,clip,,Neg,f,green,MIMIC.ogg,MIMIC.mp3,49,0,CFD-BF-049-039-A-resized.jpg,0,0,,A,10,CFD-BF-049-039-A-resized.jpg,CFD-BF-024-024-A-resized.jpg,,,,,,,,,,,,,,,,,,,,,,,,,,,,,,,,,,,,,,,,,,,,,,,
,,,,,,,,,,,,,13570,2020-09-30_14h30.57.246,pmfbcont,2020.1.3,MacIntel,60,,,,,,,,,,,,,,,,,,,,,,,,,,,,,,,,,,,,,,j,1,0.589,13570,2020-09-30_14h30.57.246,pmfbcont,pmface-cont-black,58,,CFD-BF-005-005-HO-resized.jpg,Pos,orange,0,j,0.589,space,0.25,space,0.25,0,57,57,2,1,,enganen,,Pos,j,orange,COVER.ogg,COVER.mp3,3,0,CFD-BF-005-005-HO-resized.jpg,0,0,,HO,3,CFD-BF-005-005-HO-resized.jpg,CFD-BF-037-026-HO-resized.jpg,,,,,,,,,,,,,,,,,,,,,,,,,,,,,,,,,,,,,,,,,,,,,,,
,,,,,,,,,,,,,13570,2020-09-30_14h30.57.246,pmfbcont,2020.1.3,MacIntel,60,,,,,,,,,,,,,,,,,,,,,,,,,,,,,,,,,,,,,,j,1,0.681,13570,2020-09-30_14h30.57.246,pmfbcont,pmface-cont-black,59,,CFD-BF-041-004-HO-resized.jpg,Pos,purple,0,j,0.681,space,0.217,space,0.217,0,58,58,11,1,,hoise,,Pos,j,purple,DREAM.ogg,DREAM.mp3,12,0,CFD-BF-041-004-HO-resized.jpg,0,0,,HO,12,CFD-BF-041-004-HO-resized.jpg,CFD-BF-027-006-HO-resized.jpg,,,,,,,,,,,,,,,,,,,,,,,,,,,,,,,,,,,,,,,,,,,,,,,
,,,,,,,,,,,,,13570,2020-09-30_14h30.57.246,pmfbcont,2020.1.3,MacIntel,60,,,,,,,,,,,,,,,,,,,,,,,,,,,,,,,,,,,,,,j,0,0.625,13570,2020-09-30_14h30.57.246,pmfbcont,pmface-cont-black,60,,CFD-BM-015-014-F-resized.jpg,Neg,blue,0,j,0.625,space,0.17,space,0.17,0,59,59,81,1,,zzzz,,Neg,f,blue,MIRROR.ogg,MIRROR.mp33,82,0,CFD-BM-015-014-F-resized.jpg,0,0,,F,4,CFD-BM-015-014-F-resized.jpg,CFD-BM-032-039-F-resized.jpg,,,,,,,,,,,,,,,,,,,,,,,,,,,,,,,,,,,,,,,,,,,,,,,
,,,,,,,,,,,,,13570,2020-09-30_14h30.57.246,pmfbcont,2020.1.3,MacIntel,60,,,,,,,,,,,,,,,,,,,,,,,,,,,,,,,,,,,,,,j,1,0.624,13570,2020-09-30_14h30.57.246,pmfbcont,pmface-cont-black,61,,CFD-BM-011-017-HO-resized.jpg,Pos,blue,0,j,0.624,space,0.184,space,0.184,0,60,60,53,1,,zzzz,,Pos,j,blue,MIRROR.ogg,MIRROR.mp5,54,0,CFD-BM-011-017-HO-resized.jpg,0,0,,HO,2,CFD-BM-011-017-HO-resized.jpg,CFD-BM-030-004-HO-resized.jpg,,,,,,,,,,,,,,,,,,,,,,,,,,,,,,,,,,,,,,,,,,,,,,,
,,,,,,,,,,,,,13570,2020-09-30_14h30.57.246,pmfbcont,2020.1.3,MacIntel,60,,,,,,,,,,,,,,,,,,,,,,,,,,,,,,,,,,,,,,f,1,0.726,13570,2020-09-30_14h30.57.246,pmfbcont,pmface-cont-black,62,,CFD-BM-026-017-A-resized.jpg,Neg,green,0,f,0.726,space,0.3,space,0.3,0,61,61,103,1,,zzzz,,Neg,f,green,MIRROR.ogg,MIRROR.mp55,104,0,CFD-BM-026-017-A-resized.jpg,0,0,,A,13,CFD-BM-026-017-A-resized.jpg,CFD-BM-046-048-A-resized.jpg,,,,,,,,,,,,,,,,,,,,,,,,,,,,,,,,,,,,,,,,,,,,,,,
,,,,,,,,,,,,,13570,2020-09-30_14h30.57.246,pmfbcont,2020.1.3,MacIntel,60,,,,,,,,,,,,,,,,,,,,,,,,,,,,,,,,,,,,,,f,1,0.697,13570,2020-09-30_14h30.57.246,pmfbcont,pmface-cont-black,63,,CFD-BM-002-016-A-resized.jpg,Neg,purple,0,f,0.697,space,0.171,space,0.171,0,62,62,91,1,,zzzz,,Neg,f,purple,MIRROR.ogg,MIRROR.mp43,92,0,CFD-BM-002-016-A-resized.jpg,0,0,,A,1,CFD-BM-002-016-A-resized.jpg,CFD-BM-028-012-A-resized.jpg,,,,,,,,,,,,,,,,,,,,,,,,,,,,,,,,,,,,,,,,,,,,,,,
,,,,,,,,,,,,,13570,2020-09-30_14h30.57.246,pmfbcont,2020.1.3,MacIntel,60,,,,,,,,,,,,,,,,,,,,,,,,,,,,,,,,,,,,,,f,1,0.721,13570,2020-09-30_14h30.57.246,pmfbcont,pmface-cont-black,64,,CFD-BF-011-011-A-resized.jpg,Neg,blue,0,f,0.721,space,0.184,space,0.184,0,63,63,45,1,,guitar,,Neg,f,blue,MAYBE.ogg,MAYBE.mp3,46,0,CFD-BF-011-011-A-resized.jpg,0,0,,A,7,CFD-BF-011-011-A-resized.jpg,CFD-BF-031-020-A-resized.jpg,,,,,,,,,,,,,,,,,,,,,,,,,,,,,,,,,,,,,,,,,,,,,,,
,,,,,,,,,,,,,13570,2020-09-30_14h30.57.246,pmfbcont,2020.1.3,MacIntel,60,,,,,,,,,,,,,,,,,,,,,,,,,,,,,,,,,,,,,,f,1,0.577,13570,2020-09-30_14h30.57.246,pmfbcont,pmface-cont-black,65,,CFD-BM-018-012-A-resized.jpg,Neg,purple,0,f,0.577,space,0.199,space,0.199,0,64,64,95,1,,zzzz,,Neg,f,purple,MIRROR.ogg,MIRROR.mp47,96,0,CFD-BM-018-012-A-resized.jpg,0,0,,A,5,CFD-BM-018-012-A-resized.jpg,CFD-BM-033-032-A-resized.jpg,,,,,,,,,,,,,,,,,,,,,,,,,,,,,,,,,,,,,,,,,,,,,,,
,,,,,,,,,,,,,13570,2020-09-30_14h30.57.246,pmfbcont,2020.1.3,MacIntel,60,,,,,,,,,,,,,,,,,,,,,,,,,,,,,,,,,,,,,,j,1,0.599,13570,2020-09-30_14h30.57.246,pmfbcont,pmface-cont-black,66,,CFD-BM-013-014-HC-resized.jpg,Pos,purple,0,j,0.599,space,0.199,space,0.199,0,65,65,67,1,,zzzz,,Pos,j,purple,MIRROR.ogg,MIRROR.mp19,68,0,CFD-BM-013-014-HC-resized.jpg,0,0,,HC,3,CFD-BM-013-014-HC-resized.jpg,CFD-BM-031-009-HC-resized.jpg,,,,,,,,,,,,,,,,,,,,,,,,,,,,,,,,,,,,,,,,,,,,,,,
,,,,,,,,,,,,,13570,2020-09-30_14h30.57.246,pmfbcont,2020.1.3,MacIntel,60,,,,,,,,,,,,,,,,,,,,,,,,,,,,,,,,,,,,,,f,1,0.659,13570,2020-09-30_14h30.57.246,pmfbcont,pmface-cont-black,67,,CFD-BF-040-051-A-resized.jpg,Neg,purple,0,f,0.659,space,0.334,space,0.334,0,66,66,51,1,,bihue,,Neg,f,purple,MIRROR.ogg,MIRROR.mp3,52,0,CFD-BF-040-051-A-resized.jpg,0,0,,A,13,CFD-BF-040-051-A-resized.jpg,CFD-BF-028-021-A-resized.jpg,,,,,,,,,,,,,,,,,,,,,,,,,,,,,,,,,,,,,,,,,,,,,,,
,,,,,,,,,,,,,13570,2020-09-30_14h30.57.246,pmfbcont,2020.1.3,MacIntel,60,,,,,,,,,,,,,,,,,,,,,,,,,,,,,,,,,,,,,,f,1,0.641,13570,2020-09-30_14h30.57.246,pmfbcont,pmface-cont-black,68,,CFD-BM-019-049-F-resized.jpg,Neg,purple,0,f,0.641,space,0.2,space,0.2,0,67,67,83,1,,zzzz,,Neg,f,purple,MIRROR.ogg,MIRROR.mp35,84,0,CFD-BM-019-049-F-resized.jpg,0,0,,F,6,CFD-BM-019-049-F-resized.jpg,CFD-BM-034-025-F-resized.jpg,,,,,,,,,,,,,,,,,,,,,,,,,,,,,,,,,,,,,,,,,,,,,,,
,,,,,,,,,,,,,13570,2020-09-30_14h30.57.246,pmfbcont,2020.1.3,MacIntel,60,,,,,,,,,,,,,,,,,,,,,,,,,,,,,,,,,,,,,,j,0,0.709,13570,2020-09-30_14h30.57.246,pmfbcont,pmface-cont-black,69,,CFD-BF-006-018-F-resized.jpg,Neg,blue,0,j,0.709,space,0.165,space,0.165,0,68,68,29,1,,qarus,,Neg,f,blue,FRUIT.ogg,FRUIT.mp3,30,0,CFD-BF-006-018-F-resized.jpg,0,0,,F,4,CFD-BF-006-018-F-resized.jpg,CFD-BF-017-016-F-resized.jpg,,,,,,,,,,,,,,,,,,,,,,,,,,,,,,,,,,,,,,,,,,,,,,,
,,,,,,,,,,,,,13570,2020-09-30_14h30.57.246,pmfbcont,2020.1.3,MacIntel,60,,,,,,,,,,,,,,,,,,,,,,,,,,,,,,,,,,,,,,j,1,0.809,13570,2020-09-30_14h30.57.246,pmfbcont,pmface-cont-black,70,,CFD-BM-002-007-HO-resized.jpg,Pos,green,0,j,0.809,space,0.168,space,0.168,0,69,69,52,1,,zzzz,,Pos,j,green,MIRROR.ogg,MIRROR.mp4,53,0,CFD-BM-002-007-HO-resized.jpg,0,0,,HO,1,CFD-BM-002-007-HO-resized.jpg,CFD-BM-028-028-HO-resized.jpg,,,,,,,,,,,,,,,,,,,,,,,,,,,,,,,,,,,,,,,,,,,,,,,
,,,,,,,,,,,,,13570,2020-09-30_14h30.57.246,pmfbcont,2020.1.3,MacIntel,60,,,,,,,,,,,,,,,,,,,,,,,,,,,,,,,,,,,,,,f,1,0.675,13570,2020-09-30_14h30.57.246,pmfbcont,pmface-cont-black,71,,CFD-BM-020-037-A-resized.jpg,Neg,blue,0,f,0.675,space,0.182,space,0.182,0,70,70,97,1,,zzzz,,Neg,f,blue,MIRROR.ogg,MIRROR.mp49,98,0,CFD-BM-020-037-A-resized.jpg,0,0,,A,7,CFD-BM-020-037-A-resized.jpg,CFD-BM-036-037-A-resized.jpg,,,,,,,,,,,,,,,,,,,,,,,,,,,,,,,,,,,,,,,,,,,,,,,
,,,,,,,,,,,,,13570,2020-09-30_14h30.57.246,pmfbcont,2020.1.3,MacIntel,60,,,,,,,,,,,,,,,,,,,,,,,,,,,,,,,,,,,,,,j,1,0.643,13570,2020-09-30_14h30.57.246,pmfbcont,pmface-cont-black,72,,CFD-BF-010-005-HC-resized.jpg,Pos,orange,0,j,0.643,space,0.253,space,0.253,0,71,71,18,1,,fakily,,Pos,j,orange,FAVOR.ogg,FAVOR.mp3,19,0,CFD-BF-010-005-HC-resized.jpg,0,0,,HC,6,CFD-BF-010-005-HC-resized.jpg,CFD-BF-036-032-HC-resized.jpg,,,,,,,,,,,,,,,,,,,,,,,,,,,,,,,,,,,,,,,,,,,,,,,
,,,,,,,,,,,,,13570,2020-09-30_14h30.57.246,pmfbcont,2020.1.3,MacIntel,60,,,,,,,,,,,,,,,,,,,,,,,,,,,,,,,,,,,,,,f,1,1.626,13570,2020-09-30_14h30.57.246,pmfbcont,pmface-cont-black,73,,CFD-BF-011-021-F-resized.jpg,Neg,green,0,f,1.626,space,0.148,space,0.148,0,72,72,32,1,,town,,Neg,f,green,GENTLE.ogg,GENTLE.mp3,33,0,CFD-BF-011-021-F-resized.jpg,0,0,,F,7,CFD-BF-011-021-F-resized.jpg,CFD-BF-031-062-F-resized.jpg,,,,,,,,,,,,,,,,,,,,,,,,,,,,,,,,,,,,,,,,,,,,,,,
,,,,,,,,,,,,,13570,2020-09-30_14h30.57.246,pmfbcont,2020.1.3,MacIntel,60,,,,,,,,,,,,,,,,,,,,,,,,,,,,,,,,,,,,,,j,1,0.659,13570,2020-09-30_14h30.57.246,pmfbcont,pmface-cont-black,74,,CFD-BF-049-034-HO-resized.jpg,Pos,blue,0,j,0.659,space,0.304,space,0.304,0,73,73,9,1,,cotton,,Pos,j,blue,DOLLAR.ogg,DOLLAR.mp3,10,0,CFD-BF-049-034-HO-resized.jpg,0,0,,HO,10,CFD-BF-049-034-HO-resized.jpg,CFD-BF-024-005-HO-resized.jpg,,,,,,,,,,,,,,,,,,,,,,,,,,,,,,,,,,,,,,,,,,,,,,,
,,,,,,,,,,,,,13570,2020-09-30_14h30.57.246,pmfbcont,2020.1.3,MacIntel,60,,,,,,,,,,,,,,,,,,,,,,,,,,,,,,,,,,,,,,f,1,0.627,13570,2020-09-30_14h30.57.246,pmfbcont,pmface-cont-black,75,,CFD-BF-013-026-F-resized.jpg,Neg,blue,0,f,0.627,space,0.188,space,0.188,0,74,74,33,1,,rohan,,Neg,f,blue,GLASS.ogg,GLASS.mp3,34,0,CFD-BF-013-026-F-resized.jpg,0,0,,F,8,CFD-BF-013-026-F-resized.jpg,CFD-BF-021-012-F-resized.jpg,,,,,,,,,,,,,,,,,,,,,,,,,,,,,,,,,,,,,,,,,,,,,,,
,,,,,,,,,,,,,13570,2020-09-30_14h30.57.246,pmfbcont,2020.1.3,MacIntel,60,,,,,,,,,,,,,,,,,,,,,,,,,,,,,,,,,,,,,,f,1,0.96,13570,2020-09-30_14h30.57.246,pmfbcont,pmface-cont-black,76,,CFD-BM-024-018-A-resized.jpg,Neg,blue,0,f,0.96,space,0.169,space,0.169,0,75,75,101,1,,zzzz,,Neg,f,blue,MIRROR.ogg,MIRROR.mp53,102,0,CFD-BM-024-018-A-resized.jpg,0,0,,A,11,CFD-BM-024-018-A-resized.jpg,CFD-BM-041-048-A-resized.jpg,,,,,,,,,,,,,,,,,,,,,,,,,,,,,,,,,,,,,,,,,,,,,,,
,,,,,,,,,,,,,13570,2020-09-30_14h30.57.246,pmfbcont,2020.1.3,MacIntel,60,,,,,,,,,,,,,,,,,,,,,,,,,,,,,,,,,,,,,,f,1,0.759,13570,2020-09-30_14h30.57.246,pmfbcont,pmface-cont-black,77,,CFD-BM-020-016-F-resized.jpg,Neg,green,0,f,0.759,space,0.181,space,0.181,0,76,76,84,1,,zzzz,,Neg,f,green,MIRROR.ogg,MIRROR.mp36,85,0,CFD-BM-020-016-F-resized.jpg,0,0,,F,7,CFD-BM-020-016-F-resized.jpg,CFD-BM-036-045-F-resized.jpg,,,,,,,,,,,,,,,,,,,,,,,,,,,,,,,,,,,,,,,,,,,,,,,
,,,,,,,,,,,,,13570,2020-09-30_14h30.57.246,pmfbcont,2020.1.3,MacIntel,60,,,,,,,,,,,,,,,,,,,,,,,,,,,,,,,,,,,,,,j,1,0.74,13570,2020-09-30_14h30.57.246,pmfbcont,pmface-cont-black,78,,CFD-BF-040-043-HO-resized.jpg,Pos,green,0,j,0.74,space,0.082,space,0.082,0,77,77,12,1,,mrong,,Pos,j,green,DRESS.ogg,DRESS.mp3,13,0,CFD-BF-040-043-HO-resized.jpg,0,0,,HO,13,CFD-BF-040-043-HO-resized.jpg,CFD-BF-028-006-HO-resized.jpg,,,,,,,,,,,,,,,,,,,,,,,,,,,,,,,,,,,,,,,,,,,,,,,
,,,,,,,,,,,,,13570,2020-09-30_14h30.57.246,pmfbcont,2020.1.3,MacIntel,60,,,,,,,,,,,,,,,,,,,,,,,,,,,,,,,,,,,,,,f,1,0.642,13570,2020-09-30_14h30.57.246,pmfbcont,pmface-cont-black,79,,CFD-BM-013-016-A-resized.jpg,Neg,blue,0,f,0.642,space,0.15,space,0.15,0,78,78,93,1,,zzzz,,Neg,f,blue,MIRROR.ogg,MIRROR.mp45,94,0,CFD-BM-013-016-A-resized.jpg,0,0,,A,3,CFD-BM-013-016-A-resized.jpg,CFD-BM-031-030-A-resized.jpg,,,,,,,,,,,,,,,,,,,,,,,,,,,,,,,,,,,,,,,,,,,,,,,
,,,,,,,,,,,,,13570,2020-09-30_14h30.57.246,pmfbcont,2020.1.3,MacIntel,60,,,,,,,,,,,,,,,,,,,,,,,,,,,,,,,,,,,,,,j,1,0.79,13570,2020-09-30_14h30.57.246,pmfbcont,pmface-cont-black,80,,CFD-BF-010-003-HO-resized.jpg,Pos,blue,0,j,0.79,space,0.12,space,0.12,0,79,79,5,1,,percil,,Pos,j,blue,DESIRE.ogg,DESIRE.mp3,6,0,CFD-BF-010-003-HO-resized.jpg,0,0,,HO,6,CFD-BF-010-003-HO-resized.jpg,CFD-BF-036-030-HO-resized.jpg,,,,,,,,,,,,,,,,,,,,,,,,,,,,,,,,,,,,,,,,,,,,,,,
,,,,,,,,,,,,,13570,2020-09-30_14h30.57.246,pmfbcont,2020.1.3,MacIntel,60,,,,,,,,,,,,,,,,,,,,,,,,,,,,,,,,,,,,,,f,0,0.758,13570,2020-09-30_14h30.57.246,pmfbcont,pmface-cont-black,81,,CFD-BF-008-003-HO-resized.jpg,Pos,green,0,f,0.758,space,0.151,space,0.151,0,80,80,4,1,,almond,,Pos,j,green,DEGREE.ogg,DEGREE.mp3,5,0,CFD-BF-008-003-HO-resized.jpg,0,0,,HO,5,CFD-BF-008-003-HO-resized.jpg,CFD-BF-018-040-HO-resized.jpg,,,,,,,,,,,,,,,,,,,,,,,,,,,,,,,,,,,,,,,,,,,,,,,
,,,,,,,,,,,,,13570,2020-09-30_14h30.57.246,pmfbcont,2020.1.3,MacIntel,60,,,,,,,,,,,,,,,,,,,,,,,,,,,,,,,,,,,,,,f,1,0.929,13570,2020-09-30_14h30.57.246,pmfbcont,pmface-cont-black,82,,CFD-BM-023-011-A-resized.jpg,Neg,green,0,f,0.929,space,0.137,space,0.137,0,81,81,100,1,,zzzz,,Neg,f,green,MIRROR.ogg,MIRROR.mp52,101,0,CFD-BM-023-011-A-resized.jpg,0,0,,A,10,CFD-BM-023-011-A-resized.jpg,CFD-BM-039-037-A-resized.jpg,,,,,,,,,,,,,,,,,,,,,,,,,,,,,,,,,,,,,,,,,,,,,,,
,,,,,,,,,,,,,13570,2020-09-30_14h30.57.246,pmfbcont,2020.1.3,MacIntel,60,,,,,,,,,,,,,,,,,,,,,,,,,,,,,,,,,,,,,,f,1,0.64,13570,2020-09-30_14h30.57.246,pmfbcont,pmface-cont-black,83,,CFD-BF-008-018-F-resized.jpg,Neg,orange,0,f,0.64,space,0.2,space,0.2,0,82,82,30,1,,genber,,Neg,f,orange,FUTURE.ogg,FUTURE.mp3,31,0,CFD-BF-008-018-F-resized.jpg,0,0,,F,5,CFD-BF-008-018-F-resized.jpg,CFD-BF-018-044-F-resized.jpg,,,,,,,,,,,,,,,,,,,,,,,,,,,,,,,,,,,,,,,,,,,,,,,
,,,,,,,,,,,,,13570,2020-09-30_14h30.57.246,pmfbcont,2020.1.3,MacIntel,60,,,,,,,,,,,,,,,,,,,,,,,,,,,,,,,,,,,,,,j,1,0.891,13570,2020-09-30_14h30.57.246,pmfbcont,pmface-cont-black,84,,CFD-BF-050-008-HC-resized.jpg,Pos,blue,0,j,0.891,space,0.169,space,0.169,0,83,83,21,1,,rehad,,Pos,j,blue,FLAME.ogg,FLAME.mp3,22,0,CFD-BF-050-008-HC-resized.jpg,0,0,,HC,9,CFD-BF-050-008-HC-resized.jpg,CFD-BF-023-012-HC-resized.jpg,,,,,,,,,,,,,,,,,,,,,,,,,,,,,,,,,,,,,,,,,,,,,,,
,,,,,,,,,,,,,13570,2020-09-30_14h30.57.246,pmfbcont,2020.1.3,MacIntel,60,,,,,,,,,,,,,,,,,,,,,,,,,,,,,,,,,,,,,,f,1,0.594,13570,2020-09-30_14h30.57.246,pmfbcont,pmface-cont-black,85,,CFD-BM-022-030-A-resized.jpg,Neg,purple,0,f,0.594,space,0.167,space,0.167,0,84,84,99,1,,zzzz,,Neg,f,purple,MIRROR.ogg,MIRROR.mp51,100,0,CFD-BM-022-030-A-resized.jpg,0,0,,A,9,CFD-BM-022-030-A-resized.jpg,CFD-BM-038-038-A-resized.jpg,,,,,,,,,,,,,,,,,,,,,,,,,,,,,,,,,,,,,,,,,,,,,,,
,,,,,,,,,,,,,13570,2020-09-30_14h30.57.246,pmfbcont,2020.1.3,MacIntel,60,,,,,,,,,,,,,,,,,,,,,,,,,,,,,,,,,,,,,,f,1,0.644,13570,2020-09-30_14h30.57.246,pmfbcont,pmface-cont-black,86,,CFD-BM-013-019-F-resized.jpg,Neg,green,0,f,0.644,space,0.222,space,0.222,0,85,85,80,1,,zzzz,,Neg,f,green,MIRROR.ogg,MIRROR.mp32,81,0,CFD-BM-013-019-F-resized.jpg,0,0,,F,3,CFD-BM-013-019-F-resized.jpg,CFD-BM-031-034-F-resized.jpg,,,,,,,,,,,,,,,,,,,,,,,,,,,,,,,,,,,,,,,,,,,,,,,
,,,,,,,,,,,,,13570,2020-09-30_14h30.57.246,pmfbcont,2020.1.3,MacIntel,60,,,,,,,,,,,,,,,,,,,,,,,,,,,,,,,,,,,,,,f,1,0.773,13570,2020-09-30_14h30.57.246,pmfbcont,pmface-cont-black,87,,CFD-BF-006-012-A-resized.jpg,Neg,orange,0,f,0.773,space,0.155,space,0.155,0,86,86,42,1,,sloofy,,Neg,f,orange,MATCH.ogg,MATCH.mp3,43,0,CFD-BF-006-012-A-resized.jpg,0,0,,A,4,CFD-BF-006-012-A-resized.jpg,CFD-BF-017-011-A-resized.jpg,,,,,,,,,,,,,,,,,,,,,,,,,,,,,,,,,,,,,,,,,,,,,,,
,,,,,,,,,,,,,13570,2020-09-30_14h30.57.246,pmfbcont,2020.1.3,MacIntel,60,,,,,,,,,,,,,,,,,,,,,,,,,,,,,,,,,,,,,,f,0,0.743,13570,2020-09-30_14h30.57.246,pmfbcont,pmface-cont-black,88,,CFD-BF-005-010-HC-resized.jpg,Pos,purple,0,f,0.743,space,0.421,space,0.421,0,87,87,15,1,,orukige,,Pos,j,purple,FALSE.ogg,FALSE.mp3,16,0,CFD-BF-005-010-HC-resized.jpg,0,0,,HC,3,CFD-BF-005-010-HC-resized.jpg,CFD-BF-037-030-HC-resized.jpg,,,,,,,,,,,,,,,,,,,,,,,,,,,,,,,,,,,,,,,,,,,,,,,
,,,,,,,,,,,,,13570,2020-09-30_14h30.57.246,pmfbcont,2020.1.3,MacIntel,60,,,,,,,,,,,,,,,,,,,,,,,,,,,,,,,,,,,,,,j,1,0.559,13570,2020-09-30_14h30.57.246,pmfbcont,pmface-cont-black,89,,CFD-BM-023-034-HC-resized.jpg,Pos,orange,0,j,0.559,space,0.201,space,0.201,0,88,88,74,1,,zzzz,,Pos,j,orange,MIRROR.ogg,MIRROR.mp26,75,0,CFD-BM-023-034-HC-resized.jpg,0,0,,HC,10,CFD-BM-023-034-HC-resized.jpg,CFD-BM-039-031-HC-resized.jpg,,,,,,,,,,,,,,,,,,,,,,,,,,,,,,,,,,,,,,,,,,,,,,,
,,,,,,,,,,,,,13570,2020-09-30_14h30.57.246,pmfbcont,2020.1.3,MacIntel,60,,,,,,,,,,,,,,,,,,,,,,,,,,,,,,,,,,,,,,f,0,0.806,13570,2020-09-30_14h30.57.246,pmfbcont,pmface-cont-black,90,,CFD-BM-022-004-HC-resized.jpg,Pos,blue,0,f,0.806,space,0.219,space,0.219,0,89,89,73,1,,zzzz,,Pos,j,blue,MIRROR.ogg,MIRROR.mp25,74,0,CFD-BM-022-004-HC-resized.jpg,0,0,,HC,9,CFD-BM-022-004-HC-resized.jpg,CFD-BM-038-004-HC-resized.jpg,,,,,,,,,,,,,,,,,,,,,,,,,,,,,,,,,,,,,,,,,,,,,,,
,,,,,,,,,,,,,13570,2020-09-30_14h30.57.246,pmfbcont,2020.1.3,MacIntel,60,,,,,,,,,,,,,,,,,,,,,,,,,,,,,,,,,,,,,,j,1,1.255,13570,2020-09-30_14h30.57.246,pmfbcont,pmface-cont-black,91,,CFD-BM-025-040-HO-resized.jpg,Pos,purple,0,j,1.255,space,0.156,space,0.156,0,90,90,63,1,,zzzz,,Pos,j,purple,MIRROR.ogg,MIRROR.mp15,64,0,CFD-BM-025-040-HO-resized.jpg,0,0,,HO,12,CFD-BM-025-040-HO-resized.jpg,CFD-BM-045-055-HO-resized.jpg,,,,,,,,,,,,,,,,,,,,,,,,,,,,,,,,,,,,,,,,,,,,,,,
,,,,,,,,,,,,,13570,2020-09-30_14h30.57.246,pmfbcont,2020.1.3,MacIntel,60,,,,,,,,,,,,,,,,,,,,,,,,,,,,,,,,,,,,,,j,1,0.556,13570,2020-09-30_14h30.57.246,pmfbcont,pmface-cont-black,92,,CFD-BF-049-036-HC-resized.jpg,Pos,orange,0,j,0.556,space,0.191,space,0.191,0,91,91,22,1,,fudent,,Pos,j,orange,FLOAT.ogg,FLOAT.mp3,23,0,CFD-BF-049-036-HC-resized.jpg,0,0,,HC,10,CFD-BF-049-036-HC-resized.jpg,CFD-BF-024-003-HC-resized.jpg,,,,,,,,,,,,,,,,,,,,,,,,,,,,,,,,,,,,,,,,,,,,,,,
,,,,,,,,,,,,,13570,2020-09-30_14h30.57.246,pmfbcont,2020.1.3,MacIntel,60,,,,,,,,,,,,,,,,,,,,,,,,,,,,,,,,,,,,,,j,1,0.549,13570,2020-09-30_14h30.57.246,pmfbcont,pmface-cont-black,93,,CFD-BM-002-011-HC-resized.jpg,Pos,blue,0,j,0.549,space,0.203,space,0.203,0,92,92,65,1,,zzzz,,Pos,j,blue,MIRROR.ogg,MIRROR.mp17,66,0,CFD-BM-002-011-HC-resized.jpg,0,0,,HC,1,CFD-BM-002-011-HC-resized.jpg,CFD-BM-028-031-HC-resized.jpg,,,,,,,,,,,,,,,,,,,,,,,,,,,,,,,,,,,,,,,,,,,,,,,
,,,,,,,,,,,,,13570,2020-09-30_14h30.57.246,pmfbcont,2020.1.3,MacIntel,60,,,,,,,,,,,,,,,,,,,,,,,,,,,,,,,,,,,,,,j,1,0.541,13570,2020-09-30_14h30.57.246,pmfbcont,pmface-cont-black,94,,CFD-BM-020-026-HO-resized.jpg,Pos,orange,0,j,0.541,space,0.203,space,0.203,0,93,93,58,1,,zzzz,,Pos,j,orange,MIRROR.ogg,MIRROR.mp10,59,0,CFD-BM-020-026-HO-resized.jpg,0,0,,HO,7,CFD-BM-020-026-HO-resized.jpg,CFD-BM-036-004-HO-resized.jpg,,,,,,,,,,,,,,,,,,,,,,,,,,,,,,,,,,,,,,,,,,,,,,,
,,,,,,,,,,,,,13570,2020-09-30_14h30.57.246,pmfbcont,2020.1.3,MacIntel,60,,,,,,,,,,,,,,,,,,,,,,,,,,,,,,,,,,,,,,j,1,0.512,13570,2020-09-30_14h30.57.246,pmfbcont,pmface-cont-black,95,,CFD-BF-011-004-HO-resized.jpg,Pos,orange,0,j,0.512,space,0.203,space,0.203,0,94,94,6,1,,jiend,,Pos,j,orange,DINNER.ogg,DINNER.mp3,7,0,CFD-BF-011-004-HO-resized.jpg,0,0,,HO,7,CFD-BF-011-004-HO-resized.jpg,CFD-BF-031-051-HO-resized.jpg,,,,,,,,,,,,,,,,,,,,,,,,,,,,,,,,,,,,,,,,,,,,,,,
,,,,,,,,,,,,,13570,2020-09-30_14h30.57.246,pmfbcont,2020.1.3,MacIntel,60,,,,,,,,,,,,,,,,,,,,,,,,,,,,,,,,,,,,,,j,1,0.545,13570,2020-09-30_14h30.57.246,pmfbcont,pmface-cont-black,96,,CFD-BM-026-009-HO-resized.jpg,Pos,green,0,j,0.545,space,0.216,space,0.216,0,95,95,64,1,,zzzz,,Pos,j,green,MIRROR.ogg,MIRROR.mp16,65,0,CFD-BM-026-009-HO-resized.jpg,0,0,,HO,13,CFD-BM-026-009-HO-resized.jpg,CFD-BM-046-039-HO-resized.jpg,,,,,,,,,,,,,,,,,,,,,,,,,,,,,,,,,,,,,,,,,,,,,,,
,,,,,,,,,,,,,13570,2020-09-30_14h30.57.246,pmfbcont,2020.1.3,MacIntel,60,,,,,,,,,,,,,,,,,,,,,,,,,,,,,,,,,,,,,,j,1,0.448,13570,2020-09-30_14h30.57.246,pmfbcont,pmface-cont-black,97,,CFD-BF-006-006-HO-resized.jpg,Pos,purple,0,j,0.448,space,0.169,space,0.169,0,96,96,3,1,,country,,Pos,j,purple,DANCE.ogg,DANCE.mp3,4,0,CFD-BF-006-006-HO-resized.jpg,0,0,,HO,4,CFD-BF-006-006-HO-resized.jpg,CFD-BF-017-004-HO-resized.jpg,,,,,,,,,,,,,,,,,,,,,,,,,,,,,,,,,,,,,,,,,,,,,,,
,,,,,,,,,,,,,13570,2020-09-30_14h30.57.246,pmfbcont,2020.1.3,MacIntel,60,,,,,,,,,,,,,,,,,,,,,,,,,,,,,,,,,,,,,,f,1,0.609,13570,2020-09-30_14h30.57.246,pmfbcont,pmface-cont-black,98,,CFD-BM-019-045-A-resized.jpg,Neg,green,0,f,0.609,space,0.184,space,0.184,0,97,97,96,1,,zzzz,,Neg,f,green,MIRROR.ogg,MIRROR.mp48,97,0,CFD-BM-019-045-A-resized.jpg,0,0,,A,6,CFD-BM-019-045-A-resized.jpg,CFD-BM-034-040-A-resized.jpg,,,,,,,,,,,,,,,,,,,,,,,,,,,,,,,,,,,,,,,,,,,,,,,
,,,,,,,,,,,,,13570,2020-09-30_14h30.57.246,pmfbcont,2020.1.3,MacIntel,60,,,,,,,,,,,,,,,,,,,,,,,,,,,,,,,,,,,,,,j,1,0.612,13570,2020-09-30_14h30.57.246,pmfbcont,pmface-cont-black,99,,CFD-BF-045-062-HO-resized.jpg,Pos,orange,0,j,0.612,space,0.14,space,0.14,0,98,98,10,1,,bejieze,,Pos,j,orange,DOZEN.ogg,DOZEN.mp3,11,0,CFD-BF-045-062-HO-resized.jpg,0,0,,HO,11,CFD-BF-045-062-HO-resized.jpg,CFD-BF-025-005-HO-resized.jpg,,,,,,,,,,,,,,,,,,,,,,,,,,,,,,,,,,,,,,,,,,,,,,,
,,,,,,,,,,,,,13570,2020-09-30_14h30.57.246,pmfbcont,2020.1.3,MacIntel,60,,,,,,,,,,,,,,,,,,,,,,,,,,,,,,,,,,,,,,j,1,0.506,13570,2020-09-30_14h30.57.246,pmfbcont,pmface-cont-black,100,,CFD-BF-008-007-HC-resized.jpg,Pos,blue,0,j,0.506,space,0.2,space,0.2,0,99,99,17,1,,candy,,Pos,j,blue,FINAL.ogg,FINAL.mp3,18,0,CFD-BF-008-007-HC-resized.jpg,0,0,,HC,5,CFD-BF-008-007-HC-resized.jpg,CFD-BF-018-041-HC-resized.jpg,,,,,,,,,,,,,,,,,,,,,,,,,,,,,,,,,,,,,,,,,,,,,,,
,,,,,,,,,,,,,13570,2020-09-30_14h30.57.246,pmfbcont,2020.1.3,MacIntel,60,,,,,,,,,,,,,,,,,,,,,,,,,,,,,,,,,,,,,,j,0,0.54,13570,2020-09-30_14h30.57.246,pmfbcont,pmface-cont-black,101,,CFD-BM-025-051-F-resized.jpg,Neg,blue,0,j,0.54,space,0.171,space,0.171,0,100,100,89,1,,zzzz,,Neg,f,blue,MIRROR.ogg,MIRROR.mp41,90,0,CFD-BM-025-051-F-resized.jpg,0,0,,F,12,CFD-BM-025-051-F-resized.jpg,CFD-BM-045-045-F-resized.jpg,,,,,,,,,,,,,,,,,,,,,,,,,,,,,,,,,,,,,,,,,,,,,,,
,,,,,,,,,,,,,13570,2020-09-30_14h30.57.246,pmfbcont,2020.1.3,MacIntel,60,,,,,,,,,,,,,,,,,,,,,,,,,,,,,,,,,,,,,,f,1,0.925,13570,2020-09-30_14h30.57.246,pmfbcont,pmface-cont-black,102,,CFD-BM-015-012-A-resized.jpg,Neg,orange,0,f,0.925,space,0.189,space,0.189,0,101,101,94,1,,zzzz,,Neg,f,orange,MIRROR.ogg,MIRROR.mp46,95,0,CFD-BM-015-012-A-resized.jpg,0,0,,A,4,CFD-BM-015-012-A-resized.jpg,CFD-BM-032-015-A-resized.jpg,,,,,,,,,,,,,,,,,,,,,,,,,,,,,,,,,,,,,,,,,,,,,,,
,,,,,,,,,,,,,13570,2020-09-30_14h30.57.246,pmfbcont,2020.1.3,MacIntel,60,,,,,,,,,,,,,,,,,,,,,,,,,,,,,,,,,,,,,,j,0,1.012,13570,2020-09-30_14h30.57.246,pmfbcont,pmface-cont-black,103,,CFD-BM-021-029-F-resized.jpg,Neg,blue,0,j,1.012,space,0.101,space,0.101,0,102,102,85,1,,zzzz,,Neg,f,blue,MIRROR.ogg,MIRROR.mp37,86,0,CFD-BM-021-029-F-resized.jpg,0,0,,F,8,CFD-BM-021-029-F-resized.jpg,CFD-BM-037-088-F-resized.jpg,,,,,,,,,,,,,,,,,,,,,,,,,,,,,,,,,,,,,,,,,,,,,,,
,,,,,,,,,,,,,13570,2020-09-30_14h30.57.246,pmfbcont,2020.1.3,MacIntel,60,,,,,,,,,,,,,,,,,,,,,,,,,,,,,,,,,,,,,,j,1,0.758,13570,2020-09-30_14h30.57.246,pmfbcont,pmface-cont-black,104,,CFD-BF-004-009-HO-resized.jpg,Pos,blue,0,j,0.758,space,0.15,space,0.15,0,103,103,1,1,,sail,,Pos,j,blue,COURSE.ogg,COURSE.mp3,2,0,CFD-BF-004-009-HO-resized.jpg,0,0,,HO,2,CFD-BF-004-009-HO-resized.jpg,CFD-BF-015-006-HO-resized.jpg,,,,,,,,,,,,,,,,,,,,,,,,,,,,,,,,,,,,,,,,,,,,,,,
,,,,,,,,,,,,,13570,2020-09-30_14h30.57.246,pmfbcont,2020.1.3,MacIntel,60,,,,,,,,,,,,,,,,,,,,,,,,,,,,,,,,,,,,,,j,1,0.628,13570,2020-09-30_14h30.57.246,pmfbcont,pmface-cont-black,105,,CFD-BM-022-004-HC-resized.jpg,Pos,blue,0,j,0.628,space,0.184,space,0.184,1,0,104,73,1,,zzzz,,Pos,j,blue,MIRROR.ogg,MIRROR.mp25,74,0,CFD-BM-022-004-HC-resized.jpg,0,0,,HC,9,CFD-BM-022-004-HC-resized.jpg,CFD-BM-038-004-HC-resized.jpg,,,,,,,,,,,,,,,,,,,,,,,,,,,,,,,,,,,,,,,,,,,,,,,
,,,,,,,,,,,,,13570,2020-09-30_14h30.57.246,pmfbcont,2020.1.3,MacIntel,60,,,,,,,,,,,,,,,,,,,,,,,,,,,,,,,,,,,,,,j,1,0.53,13570,2020-09-30_14h30.57.246,pmfbcont,pmface-cont-black,106,,CFD-BM-018-007-HO-resized.jpg,Pos,green,0,j,0.53,space,0.187,space,0.187,1,1,105,56,1,,zzzz,,Pos,j,green,MIRROR.ogg,MIRROR.mp8,57,0,CFD-BM-018-007-HO-resized.jpg,0,0,,HO,5,CFD-BM-018-007-HO-resized.jpg,CFD-BM-033-029-HO-resized.jpg,,,,,,,,,,,,,,,,,,,,,,,,,,,,,,,,,,,,,,,,,,,,,,,
,,,,,,,,,,,,,13570,2020-09-30_14h30.57.246,pmfbcont,2020.1.3,MacIntel,60,,,,,,,,,,,,,,,,,,,,,,,,,,,,,,,,,,,,,,j,1,0.593,13570,2020-09-30_14h30.57.246,pmfbcont,pmface-cont-black,107,,CFD-BM-019-004-HO-resized.jpg,Pos,blue,0,j,0.593,space,0.155,space,0.155,1,2,106,57,1,,zzzz,,Pos,j,blue,MIRROR.ogg,MIRROR.mp9,58,0,CFD-BM-019-004-HO-resized.jpg,0,0,,HO,6,CFD-BM-019-004-HO-resized.jpg,CFD-BM-034-033-HO-resized.jpg,,,,,,,,,,,,,,,,,,,,,,,,,,,,,,,,,,,,,,,,,,,,,,,
,,,,,,,,,,,,,13570,2020-09-30_14h30.57.246,pmfbcont,2020.1.3,MacIntel,60,,,,,,,,,,,,,,,,,,,,,,,,,,,,,,,,,,,,,,j,1,0.561,13570,2020-09-30_14h30.57.246,pmfbcont,pmface-cont-black,108,,CFD-BM-011-019-HC-resized.jpg,Pos,orange,0,j,0.561,space,0.169,space,0.169,1,3,107,66,1,,zzzz,,Pos,j,orange,MIRROR.ogg,MIRROR.mp18,67,0,CFD-BM-011-019-HC-resized.jpg,0,0,,HC,2,CFD-BM-011-019-HC-resized.jpg,CFD-BM-030-008-HC-resized.jpg,,,,,,,,,,,,,,,,,,,,,,,,,,,,,,,,,,,,,,,,,,,,,,,
,,,,,,,,,,,,,13570,2020-09-30_14h30.57.246,pmfbcont,2020.1.3,MacIntel,60,,,,,,,,,,,,,,,,,,,,,,,,,,,,,,,,,,,,,,j,0,0.561,13570,2020-09-30_14h30.57.246,pmfbcont,pmface-cont-black,109,,CFD-BM-025-051-F-resized.jpg,Neg,blue,0,j,0.561,space,0.139,space,0.139,1,4,108,89,1,,zzzz,,Neg,f,blue,MIRROR.ogg,MIRROR.mp41,90,0,CFD-BM-025-051-F-resized.jpg,0,0,,F,12,CFD-BM-025-051-F-resized.jpg,CFD-BM-045-045-F-resized.jpg,,,,,,,,,,,,,,,,,,,,,,,,,,,,,,,,,,,,,,,,,,,,,,,
,,,,,,,,,,,,,13570,2020-09-30_14h30.57.246,pmfbcont,2020.1.3,MacIntel,60,,,,,,,,,,,,,,,,,,,,,,,,,,,,,,,,,,,,,,j,0,0.608,13570,2020-09-30_14h30.57.246,pmfbcont,pmface-cont-black,110,,CFD-BF-011-021-F-resized.jpg,Neg,green,0,j,0.608,space,1.199,space,1.199,1,5,109,32,1,,town,,Neg,f,green,GENTLE.ogg,GENTLE.mp3,33,0,CFD-BF-011-021-F-resized.jpg,0,0,,F,7,CFD-BF-011-021-F-resized.jpg,CFD-BF-031-062-F-resized.jpg,,,,,,,,,,,,,,,,,,,,,,,,,,,,,,,,,,,,,,,,,,,,,,,
,,,,,,,,,,,,,13570,2020-09-30_14h30.57.246,pmfbcont,2020.1.3,MacIntel,60,,,,,,,,,,,,,,,,,,,,,,,,,,,,,,,,,,,,,,f,1,0.532,13570,2020-09-30_14h30.57.246,pmfbcont,pmface-cont-black,111,,CFD-BM-021-026-A-resized.jpg,Neg,orange,0,f,0.532,space,0.203,space,0.203,1,6,110,98,1,,zzzz,,Neg,f,orange,MIRROR.ogg,MIRROR.mp50,99,0,CFD-BM-021-026-A-resized.jpg,0,0,,A,8,CFD-BM-021-026-A-resized.jpg,CFD-BM-037-041-A-resized.jpg,,,,,,,,,,,,,,,,,,,,,,,,,,,,,,,,,,,,,,,,,,,,,,,
,,,,,,,,,,,,,13570,2020-09-30_14h30.57.246,pmfbcont,2020.1.3,MacIntel,60,,,,,,,,,,,,,,,,,,,,,,,,,,,,,,,,,,,,,,f,1,0.794,13570,2020-09-30_14h30.57.246,pmfbcont,pmface-cont-black,112,,CFD-BM-023-039-F-resized.jpg,Neg,purple,0,f,0.794,space,0.201,space,0.201,1,7,111,87,1,,zzzz,,Neg,f,purple,MIRROR.ogg,MIRROR.mp39,88,0,CFD-BM-023-039-F-resized.jpg,0,0,,F,10,CFD-BM-023-039-F-resized.jpg,CFD-BM-039-044-F-resized.jpg,,,,,,,,,,,,,,,,,,,,,,,,,,,,,,,,,,,,,,,,,,,,,,,
,,,,,,,,,,,,,13570,2020-09-30_14h30.57.246,pmfbcont,2020.1.3,MacIntel,60,,,,,,,,,,,,,,,,,,,,,,,,,,,,,,,,,,,,,,j,1,0.642,13570,2020-09-30_14h30.57.246,pmfbcont,pmface-cont-black,113,,CFD-BM-024-061-HO-resized.jpg,Pos,orange,0,j,0.642,space,0.202,space,0.202,1,8,112,62,1,,zzzz,,Pos,j,orange,MIRROR.ogg,MIRROR.mp14,63,0,CFD-BM-024-061-HO-resized.jpg,0,0,,HO,11,CFD-BM-024-061-HO-resized.jpg,CFD-BM-041-041-HO-resized.jpg,,,,,,,,,,,,,,,,,,,,,,,,,,,,,,,,,,,,,,,,,,,,,,,
,,,,,,,,,,,,,13570,2020-09-30_14h30.57.246,pmfbcont,2020.1.3,MacIntel,60,,,,,,,,,,,,,,,,,,,,,,,,,,,,,,,,,,,,,,j,1,0.681,13570,2020-09-30_14h30.57.246,pmfbcont,pmface-cont-black,114,,CFD-BF-049-036-HC-resized.jpg,Pos,orange,0,j,0.681,space,0.172,space,0.172,1,9,113,22,1,,fudent,,Pos,j,orange,FLOAT.ogg,FLOAT.mp3,23,0,CFD-BF-049-036-HC-resized.jpg,0,0,,HC,10,CFD-BF-049-036-HC-resized.jpg,CFD-BF-024-003-HC-resized.jpg,,,,,,,,,,,,,,,,,,,,,,,,,,,,,,,,,,,,,,,,,,,,,,,
,,,,,,,,,,,,,13570,2020-09-30_14h30.57.246,pmfbcont,2020.1.3,MacIntel,60,,,,,,,,,,,,,,,,,,,,,,,,,,,,,,,,,,,,,,f,1,1.382,13570,2020-09-30_14h30.57.246,pmfbcont,pmface-cont-black,115,,CFD-BM-018-012-A-resized.jpg,Neg,purple,0,f,1.382,space,0.15,space,0.15,1,10,114,95,1,,zzzz,,Neg,f,purple,MIRROR.ogg,MIRROR.mp47,96,0,CFD-BM-018-012-A-resized.jpg,0,0,,A,5,CFD-BM-018-012-A-resized.jpg,CFD-BM-033-032-A-resized.jpg,,,,,,,,,,,,,,,,,,,,,,,,,,,,,,,,,,,,,,,,,,,,,,,
,,,,,,,,,,,,,13570,2020-09-30_14h30.57.246,pmfbcont,2020.1.3,MacIntel,60,,,,,,,,,,,,,,,,,,,,,,,,,,,,,,,,,,,,,,j,1,0.578,13570,2020-09-30_14h30.57.246,pmfbcont,pmface-cont-black,116,,CFD-BF-006-006-HO-resized.jpg,Pos,purple,0,j,0.578,space,0.075,space,0.075,1,11,115,3,1,,country,,Pos,j,purple,DANCE.ogg,DANCE.mp3,4,0,CFD-BF-006-006-HO-resized.jpg,0,0,,HO,4,CFD-BF-006-006-HO-resized.jpg,CFD-BF-017-004-HO-resized.jpg,,,,,,,,,,,,,,,,,,,,,,,,,,,,,,,,,,,,,,,,,,,,,,,
,,,,,,,,,,,,,13570,2020-09-30_14h30.57.246,pmfbcont,2020.1.3,MacIntel,60,,,,,,,,,,,,,,,,,,,,,,,,,,,,,,,,,,,,,,f,1,1.011,13570,2020-09-30_14h30.57.246,pmfbcont,pmface-cont-black,117,,CFD-BM-015-014-F-resized.jpg,Neg,blue,0,f,1.011,space,0.087,space,0.087,1,12,116,81,1,,zzzz,,Neg,f,blue,MIRROR.ogg,MIRROR.mp33,82,0,CFD-BM-015-014-F-resized.jpg,0,0,,F,4,CFD-BM-015-014-F-resized.jpg,CFD-BM-032-039-F-resized.jpg,,,,,,,,,,,,,,,,,,,,,,,,,,,,,,,,,,,,,,,,,,,,,,,
,,,,,,,,,,,,,13570,2020-09-30_14h30.57.246,pmfbcont,2020.1.3,MacIntel,60,,,,,,,,,,,,,,,,,,,,,,,,,,,,,,,,,,,,,,f,1,1.079,13570,2020-09-30_14h30.57.246,pmfbcont,pmface-cont-black,118,,CFD-BM-019-045-A-resized.jpg,Neg,green,0,f,1.079,space,1.032,space,1.032,1,13,117,96,1,,zzzz,,Neg,f,green,MIRROR.ogg,MIRROR.mp48,97,0,CFD-BM-019-045-A-resized.jpg,0,0,,A,6,CFD-BM-019-045-A-resized.jpg,CFD-BM-034-040-A-resized.jpg,,,,,,,,,,,,,,,,,,,,,,,,,,,,,,,,,,,,,,,,,,,,,,,
,,,,,,,,,,,,,13570,2020-09-30_14h30.57.246,pmfbcont,2020.1.3,MacIntel,60,,,,,,,,,,,,,,,,,,,,,,,,,,,,,,,,,,,,,,f,1,0.941,13570,2020-09-30_14h30.57.246,pmfbcont,pmface-cont-black,119,,CFD-BM-026-041-F-resized.jpg,Neg,orange,0,f,0.941,space,0.183,space,0.183,1,14,118,90,1,,zzzz,,Neg,f,orange,MIRROR.ogg,MIRROR.mp42,91,0,CFD-BM-026-041-F-resized.jpg,0,0,,F,13,CFD-BM-026-041-F-resized.jpg,CFD-BM-046-063-F-resized.jpg,,,,,,,,,,,,,,,,,,,,,,,,,,,,,,,,,,,,,,,,,,,,,,,
,,,,,,,,,,,,,13570,2020-09-30_14h30.57.246,pmfbcont,2020.1.3,MacIntel,60,,,,,,,,,,,,,,,,,,,,,,,,,,,,,,,,,,,,,,f,1,0.865,13570,2020-09-30_14h30.57.246,pmfbcont,pmface-cont-black,120,,CFD-BF-040-081-F-resized.jpg,Neg,orange,0,f,0.865,space,0.233,space,0.233,1,15,119,38,1,,heakal,,Neg,f,orange,GROUND.ogg,GROUND.mp3,39,0,CFD-BF-040-081-F-resized.jpg,0,0,,F,13,CFD-BF-040-081-F-resized.jpg,CFD-BF-028-029-F-resized.jpg,,,,,,,,,,,,,,,,,,,,,,,,,,,,,,,,,,,,,,,,,,,,,,,
,,,,,,,,,,,,,13570,2020-09-30_14h30.57.246,pmfbcont,2020.1.3,MacIntel,60,,,,,,,,,,,,,,,,,,,,,,,,,,,,,,,,,,,,,,j,1,1.543,13570,2020-09-30_14h30.57.246,pmfbcont,pmface-cont-black,121,,CFD-BM-015-017-HC-resized.jpg,Pos,green,0,j,1.543,space,0.149,space,0.149,1,16,120,68,1,,zzzz,,Pos,j,green,MIRROR.ogg,MIRROR.mp20,69,0,CFD-BM-015-017-HC-resized.jpg,0,0,,HC,4,CFD-BM-015-017-HC-resized.jpg,CFD-BM-032-010-HC-resized.jpg,,,,,,,,,,,,,,,,,,,,,,,,,,,,,,,,,,,,,,,,,,,,,,,
,,,,,,,,,,,,,13570,2020-09-30_14h30.57.246,pmfbcont,2020.1.3,MacIntel,60,,,,,,,,,,,,,,,,,,,,,,,,,,,,,,,,,,,,,,f,1,0.692,13570,2020-09-30_14h30.57.246,pmfbcont,pmface-cont-black,122,,CFD-BM-020-037-A-resized.jpg,Neg,blue,0,f,0.692,space,0.2,space,0.2,1,17,121,97,1,,zzzz,,Neg,f,blue,MIRROR.ogg,MIRROR.mp49,98,0,CFD-BM-020-037-A-resized.jpg,0,0,,A,7,CFD-BM-020-037-A-resized.jpg,CFD-BM-036-037-A-resized.jpg,,,,,,,,,,,,,,,,,,,,,,,,,,,,,,,,,,,,,,,,,,,,,,,
,,,,,,,,,,,,,13570,2020-09-30_14h30.57.246,pmfbcont,2020.1.3,MacIntel,60,,,,,,,,,,,,,,,,,,,,,,,,,,,,,,,,,,,,,,j,1,0.526,13570,2020-09-30_14h30.57.246,pmfbcont,pmface-cont-black,123,,CFD-BM-023-034-HC-resized.jpg,Pos,orange,0,j,0.526,space,0.119,space,0.119,1,18,122,74,1,,zzzz,,Pos,j,orange,MIRROR.ogg,MIRROR.mp26,75,0,CFD-BM-023-034-HC-resized.jpg,0,0,,HC,10,CFD-BM-023-034-HC-resized.jpg,CFD-BM-039-031-HC-resized.jpg,,,,,,,,,,,,,,,,,,,,,,,,,,,,,,,,,,,,,,,,,,,,,,,
,,,,,,,,,,,,,13570,2020-09-30_14h30.57.246,pmfbcont,2020.1.3,MacIntel,60,,,,,,,,,,,,,,,,,,,,,,,,,,,,,,,,,,,,,,f,1,0.76,13570,2020-09-30_14h30.57.246,pmfbcont,pmface-cont-black,124,,CFD-BF-010-015-F-resized.jpg,Neg,purple,0,f,0.76,space,0.2,space,0.2,1,19,123,31,1,,museum,,Neg,f,purple,GARDEN.ogg,GARDEN.mp3,32,0,CFD-BF-010-015-F-resized.jpg,0,0,,F,6,CFD-BF-010-015-F-resized.jpg,CFD-BF-036-046-F-resized.jpg,,,,,,,,,,,,,,,,,,,,,,,,,,,,,,,,,,,,,,,,,,,,,,,
,,,,,,,,,,,,,13570,2020-09-30_14h30.57.246,pmfbcont,2020.1.3,MacIntel,60,,,,,,,,,,,,,,,,,,,,,,,,,,,,,,,,,,,,,,f,1,0.774,13570,2020-09-30_14h30.57.246,pmfbcont,pmface-cont-black,125,,CFD-BF-050-036-F-resized.jpg,Neg,orange,0,f,0.774,space,0.215,space,0.215,1,20,124,34,1,,boulder,,Neg,f,orange,GLOVE.ogg,GLOVE.mp3,35,0,CFD-BF-050-036-F-resized.jpg,0,0,,F,9,CFD-BF-050-036-F-resized.jpg,CFD-BF-023-014-F-resized.jpg,,,,,,,,,,,,,,,,,,,,,,,,,,,,,,,,,,,,,,,,,,,,,,,
,,,,,,,,,,,,,13570,2020-09-30_14h30.57.246,pmfbcont,2020.1.3,MacIntel,60,,,,,,,,,,,,,,,,,,,,,,,,,,,,,,,,,,,,,,j,1,0.843,13570,2020-09-30_14h30.57.246,pmfbcont,pmface-cont-black,126,,CFD-BF-040-010-HC-resized.jpg,Pos,blue,0,j,0.843,space,0.218,space,0.218,1,21,125,25,1,,gruut,,Pos,j,blue,FREELY.ogg,FREELY.mp3,26,0,CFD-BF-040-010-HC-resized.jpg,0,0,,HC,13,CFD-BF-040-010-HC-resized.jpg,CFD-BF-028-020-HC-resized.jpg,,,,,,,,,,,,,,,,,,,,,,,,,,,,,,,,,,,,,,,,,,,,,,,
,,,,,,,,,,,,,13570,2020-09-30_14h30.57.246,pmfbcont,2020.1.3,MacIntel,60,,,,,,,,,,,,,,,,,,,,,,,,,,,,,,,,,,,,,,j,1,0.672,13570,2020-09-30_14h30.57.246,pmfbcont,pmface-cont-black,127,,CFD-BF-013-003-HO-resized.jpg,Pos,purple,0,j,0.672,space,0.217,space,0.217,1,22,126,7,1,,diamond,,Pos,j,purple,DIRTY.ogg,DIRTY.mp3,8,0,CFD-BF-013-003-HO-resized.jpg,0,0,,HO,8,CFD-BF-013-003-HO-resized.jpg,CFD-BF-021-014-HO-resized.jpg,,,,,,,,,,,,,,,,,,,,,,,,,,,,,,,,,,,,,,,,,,,,,,,
,,,,,,,,,,,,,13570,2020-09-30_14h30.57.246,pmfbcont,2020.1.3,MacIntel,60,,,,,,,,,,,,,,,,,,,,,,,,,,,,,,,,,,,,,,j,1,0.564,13570,2020-09-30_14h30.57.246,pmfbcont,pmface-cont-black,128,,CFD-BF-045-062-HO-resized.jpg,Pos,orange,0,j,0.564,space,0.183,space,0.183,1,23,127,10,1,,bejieze,,Pos,j,orange,DOZEN.ogg,DOZEN.mp3,11,0,CFD-BF-045-062-HO-resized.jpg,0,0,,HO,11,CFD-BF-045-062-HO-resized.jpg,CFD-BF-025-005-HO-resized.jpg,,,,,,,,,,,,,,,,,,,,,,,,,,,,,,,,,,,,,,,,,,,,,,,
,,,,,,,,,,,,,13570,2020-09-30_14h30.57.246,pmfbcont,2020.1.3,MacIntel,60,,,,,,,,,,,,,,,,,,,,,,,,,,,,,,,,,,,,,,j,1,0.612,13570,2020-09-30_14h30.57.246,pmfbcont,pmface-cont-black,129,,CFD-BM-011-017-HO-resized.jpg,Pos,blue,0,j,0.612,space,0.15,space,0.15,1,24,128,53,1,,zzzz,,Pos,j,blue,MIRROR.ogg,MIRROR.mp5,54,0,CFD-BM-011-017-HO-resized.jpg,0,0,,HO,2,CFD-BM-011-017-HO-resized.jpg,CFD-BM-030-004-HO-resized.jpg,,,,,,,,,,,,,,,,,,,,,,,,,,,,,,,,,,,,,,,,,,,,,,,
,,,,,,,,,,,,,13570,2020-09-30_14h30.57.246,pmfbcont,2020.1.3,MacIntel,60,,,,,,,,,,,,,,,,,,,,,,,,,,,,,,,,,,,,,,j,0,0.525,13570,2020-09-30_14h30.57.246,pmfbcont,pmface-cont-black,130,,CFD-BF-006-018-F-resized.jpg,Neg,blue,0,j,0.525,space,0.119,space,0.119,1,25,129,29,1,,qarus,,Neg,f,blue,FRUIT.ogg,FRUIT.mp3,30,0,CFD-BF-006-018-F-resized.jpg,0,0,,F,4,CFD-BF-006-018-F-resized.jpg,CFD-BF-017-016-F-resized.jpg,,,,,,,,,,,,,,,,,,,,,,,,,,,,,,,,,,,,,,,,,,,,,,,
,,,,,,,,,,,,,13570,2020-09-30_14h30.57.246,pmfbcont,2020.1.3,MacIntel,60,,,,,,,,,,,,,,,,,,,,,,,,,,,,,,,,,,,,,,j,1,0.532,13570,2020-09-30_14h30.57.246,pmfbcont,pmface-cont-black,131,,CFD-BM-002-011-HC-resized.jpg,Pos,blue,0,j,0.532,space,0.1,space,0.1,1,26,130,65,1,,zzzz,,Pos,j,blue,MIRROR.ogg,MIRROR.mp17,66,0,CFD-BM-002-011-HC-resized.jpg,0,0,,HC,1,CFD-BM-002-011-HC-resized.jpg,CFD-BM-028-031-HC-resized.jpg,,,,,,,,,,,,,,,,,,,,,,,,,,,,,,,,,,,,,,,,,,,,,,,
,,,,,,,,,,,,,13570,2020-09-30_14h30.57.246,pmfbcont,2020.1.3,MacIntel,60,,,,,,,,,,,,,,,,,,,,,,,,,,,,,,,,,,,,,,j,1,0.565,13570,2020-09-30_14h30.57.246,pmfbcont,pmface-cont-black,132,,CFD-BM-026-009-HO-resized.jpg,Pos,green,0,j,0.565,space,0.205,space,0.205,1,27,131,64,1,,zzzz,,Pos,j,green,MIRROR.ogg,MIRROR.mp16,65,0,CFD-BM-026-009-HO-resized.jpg,0,0,,HO,13,CFD-BM-026-009-HO-resized.jpg,CFD-BM-046-039-HO-resized.jpg,,,,,,,,,,,,,,,,,,,,,,,,,,,,,,,,,,,,,,,,,,,,,,,
,,,,,,,,,,,,,13570,2020-09-30_14h30.57.246,pmfbcont,2020.1.3,MacIntel,60,,,,,,,,,,,,,,,,,,,,,,,,,,,,,,,,,,,,,,j,0,1.311,13570,2020-09-30_14h30.57.246,pmfbcont,pmface-cont-black,133,,CFD-BF-002-022-F-resized.jpg,Neg,orange,0,j,1.311,space,0.153,space,0.153,1,28,132,26,1,,cafin,,Neg,f,orange,FRESH.ogg,FRESH.mp3,27,0,CFD-BF-002-022-F-resized.jpg,0,0,,F,1,CFD-BF-002-022-F-resized.jpg,CFD-BF-014-021-F-resized.jpg,,,,,,,,,,,,,,,,,,,,,,,,,,,,,,,,,,,,,,,,,,,,,,,
,,,,,,,,,,,,,13570,2020-09-30_14h30.57.246,pmfbcont,2020.1.3,MacIntel,60,,,,,,,,,,,,,,,,,,,,,,,,,,,,,,,,,,,,,,j,1,0.627,13570,2020-09-30_14h30.57.246,pmfbcont,pmface-cont-black,134,,CFD-BF-004-009-HO-resized.jpg,Pos,blue,0,j,0.627,space,0.186,space,0.186,1,29,133,1,1,,sail,,Pos,j,blue,COURSE.ogg,COURSE.mp3,2,0,CFD-BF-004-009-HO-resized.jpg,0,0,,HO,2,CFD-BF-004-009-HO-resized.jpg,CFD-BF-015-006-HO-resized.jpg,,,,,,,,,,,,,,,,,,,,,,,,,,,,,,,,,,,,,,,,,,,,,,,
,,,,,,,,,,,,,13570,2020-09-30_14h30.57.246,pmfbcont,2020.1.3,MacIntel,60,,,,,,,,,,,,,,,,,,,,,,,,,,,,,,,,,,,,,,j,0,0.61,13570,2020-09-30_14h30.57.246,pmfbcont,pmface-cont-black,135,,CFD-BM-024-104-F-resized.jpg,Neg,green,0,j,0.61,space,0.269,space,0.269,1,30,134,88,1,,zzzz,,Neg,f,green,MIRROR.ogg,MIRROR.mp40,89,0,CFD-BM-024-104-F-resized.jpg,0,0,,F,11,CFD-BM-024-104-F-resized.jpg,CFD-BM-041-030-F-resized.jpg,,,,,,,,,,,,,,,,,,,,,,,,,,,,,,,,,,,,,,,,,,,,,,,
,,,,,,,,,,,,,13570,2020-09-30_14h30.57.246,pmfbcont,2020.1.3,MacIntel,60,,,,,,,,,,,,,,,,,,,,,,,,,,,,,,,,,,,,,,j,0,0.607,13570,2020-09-30_14h30.57.246,pmfbcont,pmface-cont-black,136,,CFD-BM-002-002-F-resized.jpg,Neg,orange,0,j,0.607,space,0.251,space,0.251,1,31,135,78,1,,zzzz,,Neg,f,orange,MIRROR.ogg,MIRROR.mp30,79,0,CFD-BM-002-002-F-resized.jpg,0,0,,F,1,CFD-BM-002-002-F-resized.jpg,CFD-BM-028-050-F-resized.jpg,,,,,,,,,,,,,,,,,,,,,,,,,,,,,,,,,,,,,,,,,,,,,,,
,,,,,,,,,,,,,13570,2020-09-30_14h30.57.246,pmfbcont,2020.1.3,MacIntel,60,,,,,,,,,,,,,,,,,,,,,,,,,,,,,,,,,,,,,,j,1,0.772,13570,2020-09-30_14h30.57.246,pmfbcont,pmface-cont-black,137,,CFD-BF-045-064-HC-resized.jpg,Pos,purple,0,j,0.772,space,0.152,space,0.152,1,32,136,23,1,,seed,,Pos,j,purple,FLOOR.ogg,FLOOR.mp3,24,0,CFD-BF-045-064-HC-resized.jpg,0,0,,HC,11,CFD-BF-045-064-HC-resized.jpg,CFD-BF-025-018-HC-resized.jpg,,,,,,,,,,,,,,,,,,,,,,,,,,,,,,,,,,,,,,,,,,,,,,,
,,,,,,,,,,,,,13570,2020-09-30_14h30.57.246,pmfbcont,2020.1.3,MacIntel,60,,,,,,,,,,,,,,,,,,,,,,,,,,,,,,,,,,,,,,j,1,0.632,13570,2020-09-30_14h30.57.246,pmfbcont,pmface-cont-black,138,,CFD-BF-011-005-HC-resized.jpg,Pos,purple,0,j,0.632,space,0.185,space,0.185,1,33,137,19,1,,kife,,Pos,j,purple,FIRST.ogg,FIRST.mp3,20,0,CFD-BF-011-005-HC-resized.jpg,0,0,,HC,7,CFD-BF-011-005-HC-resized.jpg,CFD-BF-031-048-HC-resized.jpg,,,,,,,,,,,,,,,,,,,,,,,,,,,,,,,,,,,,,,,,,,,,,,,
,,,,,,,,,,,,,13570,2020-09-30_14h30.57.246,pmfbcont,2020.1.3,MacIntel,60,,,,,,,,,,,,,,,,,,,,,,,,,,,,,,,,,,,,,,j,1,0.571,13570,2020-09-30_14h30.57.246,pmfbcont,pmface-cont-black,139,,CFD-BM-024-113-HC-resized.jpg,Pos,purple,0,j,0.571,space,0.182,space,0.182,1,34,138,75,1,,zzzz,,Pos,j,purple,MIRROR.ogg,MIRROR.mp27,76,0,CFD-BM-024-113-HC-resized.jpg,0,0,,HC,11,CFD-BM-024-113-HC-resized.jpg,CFD-BM-041-045-HC-resized.jpg,,,,,,,,,,,,,,,,,,,,,,,,,,,,,,,,,,,,,,,,,,,,,,,
,,,,,,,,,,,,,13570,2020-09-30_14h30.57.246,pmfbcont,2020.1.3,MacIntel,60,,,,,,,,,,,,,,,,,,,,,,,,,,,,,,,,,,,,,,j,1,0.508,13570,2020-09-30_14h30.57.246,pmfbcont,pmface-cont-black,140,,CFD-BM-021-009-HC-resized.jpg,Pos,green,0,j,0.508,space,0.532,space,0.532,1,35,139,72,1,,zzzz,,Pos,j,green,MIRROR.ogg,MIRROR.mp24,73,0,CFD-BM-021-009-HC-resized.jpg,0,0,,HC,8,CFD-BM-021-009-HC-resized.jpg,CFD-BM-037-038-HC-resized.jpg,,,,,,,,,,,,,,,,,,,,,,,,,,,,,,,,,,,,,,,,,,,,,,,
,,,,,,,,,,,,,13570,2020-09-30_14h30.57.246,pmfbcont,2020.1.3,MacIntel,60,,,,,,,,,,,,,,,,,,,,,,,,,,,,,,,,,,,,,,f,1,0.807,13570,2020-09-30_14h30.57.246,pmfbcont,pmface-cont-black,141,,CFD-BF-004-002-F-resized.jpg,Neg,purple,0,f,0.807,space,0.19,space,0.19,1,36,140,27,1,,ghort,,Neg,f,purple,FRIEND.ogg,FRIEND.mp3,28,0,CFD-BF-004-002-F-resized.jpg,0,0,,F,2,CFD-BF-004-002-F-resized.jpg,CFD-BF-015-025-F-resized.jpg,,,,,,,,,,,,,,,,,,,,,,,,,,,,,,,,,,,,,,,,,,,,,,,
,,,,,,,,,,,,,13570,2020-09-30_14h30.57.246,pmfbcont,2020.1.3,MacIntel,60,,,,,,,,,,,,,,,,,,,,,,,,,,,,,,,,,,,,,,j,1,0.606,13570,2020-09-30_14h30.57.246,pmfbcont,pmface-cont-black,142,,CFD-BM-022-027-HO-resized.jpg,Pos,green,0,j,0.606,space,0.134,space,0.134,1,37,141,60,1,,zzzz,,Pos,j,green,MIRROR.ogg,MIRROR.mp12,61,0,CFD-BM-022-027-HO-resized.jpg,0,0,,HO,9,CFD-BM-022-027-HO-resized.jpg,CFD-BM-038-007-HO-resized.jpg,,,,,,,,,,,,,,,,,,,,,,,,,,,,,,,,,,,,,,,,,,,,,,,
,,,,,,,,,,,,,13570,2020-09-30_14h30.57.246,pmfbcont,2020.1.3,MacIntel,60,,,,,,,,,,,,,,,,,,,,,,,,,,,,,,,,,,,,,,f,1,0.593,13570,2020-09-30_14h30.57.246,pmfbcont,pmface-cont-black,143,,CFD-BF-050-012-A-resized.jpg,Neg,purple,0,f,0.593,space,0.189,space,0.189,1,38,142,47,1,,lunch,,Neg,f,purple,MEMORY.ogg,MEMORY.mp3,48,0,CFD-BF-050-012-A-resized.jpg,0,0,,A,9,CFD-BF-050-012-A-resized.jpg,CFD-BF-023-013-A-resized.jpg,,,,,,,,,,,,,,,,,,,,,,,,,,,,,,,,,,,,,,,,,,,,,,,
,,,,,,,,,,,,,13570,2020-09-30_14h30.57.246,pmfbcont,2020.1.3,MacIntel,60,,,,,,,,,,,,,,,,,,,,,,,,,,,,,,,,,,,,,,f,1,0.593,13570,2020-09-30_14h30.57.246,pmfbcont,pmface-cont-black,144,,CFD-BF-049-042-F-resized.jpg,Neg,purple,0,f,0.593,space,0.187,space,0.187,1,39,143,35,1,,muffler,,Neg,f,purple,GRASS.ogg,GRASS.mp3,36,0,CFD-BF-049-042-F-resized.jpg,0,0,,F,10,CFD-BF-049-042-F-resized.jpg,CFD-BF-024-030-F-resized.jpg,,,,,,,,,,,,,,,,,,,,,,,,,,,,,,,,,,,,,,,,,,,,,,,
,,,,,,,,,,,,,13570,2020-09-30_14h30.57.246,pmfbcont,2020.1.3,MacIntel,60,,,,,,,,,,,,,,,,,,,,,,,,,,,,,,,,,,,,,,j,1,0.591,13570,2020-09-30_14h30.57.246,pmfbcont,pmface-cont-black,145,,CFD-BF-011-004-HO-resized.jpg,Pos,orange,0,j,0.591,space,0.151,space,0.151,1,40,144,6,1,,jiend,,Pos,j,orange,DINNER.ogg,DINNER.mp3,7,0,CFD-BF-011-004-HO-resized.jpg,0,0,,HO,7,CFD-BF-011-004-HO-resized.jpg,CFD-BF-031-051-HO-resized.jpg,,,,,,,,,,,,,,,,,,,,,,,,,,,,,,,,,,,,,,,,,,,,,,,
,,,,,,,,,,,,,13570,2020-09-30_14h30.57.246,pmfbcont,2020.1.3,MacIntel,60,,,,,,,,,,,,,,,,,,,,,,,,,,,,,,,,,,,,,,f,1,0.825,13570,2020-09-30_14h30.57.246,pmfbcont,pmface-cont-black,146,,CFD-BM-020-016-F-resized.jpg,Neg,green,0,f,0.825,space,0.153,space,0.153,1,41,145,84,1,,zzzz,,Neg,f,green,MIRROR.ogg,MIRROR.mp36,85,0,CFD-BM-020-016-F-resized.jpg,0,0,,F,7,CFD-BM-020-016-F-resized.jpg,CFD-BM-036-045-F-resized.jpg,,,,,,,,,,,,,,,,,,,,,,,,,,,,,,,,,,,,,,,,,,,,,,,
,,,,,,,,,,,,,13570,2020-09-30_14h30.57.246,pmfbcont,2020.1.3,MacIntel,60,,,,,,,,,,,,,,,,,,,,,,,,,,,,,,,,,,,,,,f,1,0.764,13570,2020-09-30_14h30.57.246,pmfbcont,pmface-cont-black,147,,CFD-BM-013-019-F-resized.jpg,Neg,green,0,f,0.764,space,0.334,space,0.334,1,42,146,80,1,,zzzz,,Neg,f,green,MIRROR.ogg,MIRROR.mp32,81,0,CFD-BM-013-019-F-resized.jpg,0,0,,F,3,CFD-BM-013-019-F-resized.jpg,CFD-BM-031-034-F-resized.jpg,,,,,,,,,,,,,,,,,,,,,,,,,,,,,,,,,,,,,,,,,,,,,,,
,,,,,,,,,,,,,13570,2020-09-30_14h30.57.246,pmfbcont,2020.1.3,MacIntel,60,,,,,,,,,,,,,,,,,,,,,,,,,,,,,,,,,,,,,,f,1,0.693,13570,2020-09-30_14h30.57.246,pmfbcont,pmface-cont-black,148,,CFD-BM-022-030-A-resized.jpg,Neg,purple,0,f,0.693,space,0.367,space,0.367,1,43,147,99,1,,zzzz,,Neg,f,purple,MIRROR.ogg,MIRROR.mp51,100,0,CFD-BM-022-030-A-resized.jpg,0,0,,A,9,CFD-BM-022-030-A-resized.jpg,CFD-BM-038-038-A-resized.jpg,,,,,,,,,,,,,,,,,,,,,,,,,,,,,,,,,,,,,,,,,,,,,,,
,,,,,,,,,,,,,13570,2020-09-30_14h30.57.246,pmfbcont,2020.1.3,MacIntel,60,,,,,,,,,,,,,,,,,,,,,,,,,,,,,,,,,,,,,,f,1,1.014,13570,2020-09-30_14h30.57.246,pmfbcont,pmface-cont-black,149,,CFD-BF-008-018-F-resized.jpg,Neg,orange,0,f,1.014,space,0.487,space,0.487,1,44,148,30,1,,genber,,Neg,f,orange,FUTURE.ogg,FUTURE.mp3,31,0,CFD-BF-008-018-F-resized.jpg,0,0,,F,5,CFD-BF-008-018-F-resized.jpg,CFD-BF-018-044-F-resized.jpg,,,,,,,,,,,,,,,,,,,,,,,,,,,,,,,,,,,,,,,,,,,,,,,
,,,,,,,,,,,,,13570,2020-09-30_14h30.57.246,pmfbcont,2020.1.3,MacIntel,60,,,,,,,,,,,,,,,,,,,,,,,,,,,,,,,,,,,,,,f,1,0.626,13570,2020-09-30_14h30.57.246,pmfbcont,pmface-cont-black,150,,CFD-BM-013-016-A-resized.jpg,Neg,blue,0,f,0.626,space,0.369,space,0.369,1,45,149,93,1,,zzzz,,Neg,f,blue,MIRROR.ogg,MIRROR.mp45,94,0,CFD-BM-013-016-A-resized.jpg,0,0,,A,3,CFD-BM-013-016-A-resized.jpg,CFD-BM-031-030-A-resized.jpg,,,,,,,,,,,,,,,,,,,,,,,,,,,,,,,,,,,,,,,,,,,,,,,
,,,,,,,,,,,,,13570,2020-09-30_14h30.57.246,pmfbcont,2020.1.3,MacIntel,60,,,,,,,,,,,,,,,,,,,,,,,,,,,,,,,,,,,,,,f,1,0.726,13570,2020-09-30_14h30.57.246,pmfbcont,pmface-cont-black,151,,CFD-BF-005-022-F-resized.jpg,Neg,green,0,f,0.726,space,0.28,space,0.28,1,46,150,28,1,,foraig,,Neg,f,green,FRONT.ogg,FRONT.mp3,29,0,CFD-BF-005-022-F-resized.jpg,0,0,,F,3,CFD-BF-005-022-F-resized.jpg,CFD-BF-037-043-F-resized.jpg,,,,,,,,,,,,,,,,,,,,,,,,,,,,,,,,,,,,,,,,,,,,,,,
,,,,,,,,,,,,,13570,2020-09-30_14h30.57.246,pmfbcont,2020.1.3,MacIntel,60,,,,,,,,,,,,,,,,,,,,,,,,,,,,,,,,,,,,,,j,1,0.69,13570,2020-09-30_14h30.57.246,pmfbcont,pmface-cont-black,152,,CFD-BF-041-004-HO-resized.jpg,Pos,purple,0,j,0.69,space,0.324,space,0.324,1,47,151,11,1,,hoise,,Pos,j,purple,DREAM.ogg,DREAM.mp3,12,0,CFD-BF-041-004-HO-resized.jpg,0,0,,HO,12,CFD-BF-041-004-HO-resized.jpg,CFD-BF-027-006-HO-resized.jpg,,,,,,,,,,,,,,,,,,,,,,,,,,,,,,,,,,,,,,,,,,,,,,,
,,,,,,,,,,,,,13570,2020-09-30_14h30.57.246,pmfbcont,2020.1.3,MacIntel,60,,,,,,,,,,,,,,,,,,,,,,,,,,,,,,,,,,,,,,f,1,0.558,13570,2020-09-30_14h30.57.246,pmfbcont,pmface-cont-black,153,,CFD-BM-015-012-A-resized.jpg,Neg,orange,0,f,0.558,space,0.222,space,0.222,1,48,152,94,1,,zzzz,,Neg,f,orange,MIRROR.ogg,MIRROR.mp46,95,0,CFD-BM-015-012-A-resized.jpg,0,0,,A,4,CFD-BM-015-012-A-resized.jpg,CFD-BM-032-015-A-resized.jpg,,,,,,,,,,,,,,,,,,,,,,,,,,,,,,,,,,,,,,,,,,,,,,,
,,,,,,,,,,,,,13570,2020-09-30_14h30.57.246,pmfbcont,2020.1.3,MacIntel,60,,,,,,,,,,,,,,,,,,,,,,,,,,,,,,,,,,,,,,f,1,0.746,13570,2020-09-30_14h30.57.246,pmfbcont,pmface-cont-black,154,,CFD-BF-013-017-A-resized.jpg,Neg,orange,0,f,0.746,space,0.334,space,0.334,1,49,153,46,1,,qiogue,,Neg,f,orange,MEMBER.ogg,MEMBER.mp3,47,0,CFD-BF-013-017-A-resized.jpg,0,0,,A,8,CFD-BF-013-017-A-resized.jpg,CFD-BF-021-016-A-resized.jpg,,,,,,,,,,,,,,,,,,,,,,,,,,,,,,,,,,,,,,,,,,,,,,,
,,,,,,,,,,,,,13570,2020-09-30_14h30.57.246,pmfbcont,2020.1.3,MacIntel,60,,,,,,,,,,,,,,,,,,,,,,,,,,,,,,,,,,,,,,j,1,0.66,13570,2020-09-30_14h30.57.246,pmfbcont,pmface-cont-black,155,,CFD-BF-040-043-HO-resized.jpg,Pos,green,0,j,0.66,space,0.215,space,0.215,1,50,154,12,1,,mrong,,Pos,j,green,DRESS.ogg,DRESS.mp3,13,0,CFD-BF-040-043-HO-resized.jpg,0,0,,HO,13,CFD-BF-040-043-HO-resized.jpg,CFD-BF-028-006-HO-resized.jpg,,,,,,,,,,,,,,,,,,,,,,,,,,,,,,,,,,,,,,,,,,,,,,,
,,,,,,,,,,,,,13570,2020-09-30_14h30.57.246,pmfbcont,2020.1.3,MacIntel,60,,,,,,,,,,,,,,,,,,,,,,,,,,,,,,,,,,,,,,j,1,0.625,13570,2020-09-30_14h30.57.246,pmfbcont,pmface-cont-black,156,,CFD-BF-004-008-HC-resized.jpg,Pos,orange,0,j,0.625,space,0.201,space,0.201,1,51,155,14,1,,mogeer,,Pos,j,orange,EXTRA.ogg,EXTRA.mp3,15,0,CFD-BF-004-008-HC-resized.jpg,0,0,,HC,2,CFD-BF-004-008-HC-resized.jpg,CFD-BF-015-007-HC-resized.jpg,,,,,,,,,,,,,,,,,,,,,,,,,,,,,,,,,,,,,,,,,,,,,,,
,,,,,,,,,,,,,13570,2020-09-30_14h30.57.246,pmfbcont,2020.1.3,MacIntel,60,,,,,,,,,,,,,,,,,,,,,,,,,,,,,,,,,,,,,,j,1,0.627,13570,2020-09-30_14h30.57.246,pmfbcont,pmface-cont-black,157,,CFD-BM-023-006-HO-resized.jpg,Pos,blue,0,j,0.627,space,0.188,space,0.188,1,52,156,61,1,,zzzz,,Pos,j,blue,MIRROR.ogg,MIRROR.mp13,62,0,CFD-BM-023-006-HO-resized.jpg,0,0,,HO,10,CFD-BM-023-006-HO-resized.jpg,CFD-BM-039-034-HO-resized.jpg,,,,,,,,,,,,,,,,,,,,,,,,,,,,,,,,,,,,,,,,,,,,,,,
,,,,,,,,,,,,,13570,2020-09-30_14h30.57.246,pmfbcont,2020.1.3,MacIntel,60,,,,,,,,,,,,,,,,,,,,,,,,,,,,,,,,,,,,,,f,1,0.674,13570,2020-09-30_14h30.57.246,pmfbcont,pmface-cont-black,158,,CFD-BF-005-020-A-resized.jpg,Neg,blue,0,f,0.674,space,0.199,space,0.199,1,53,157,41,1,,skafast,,Neg,f,blue,MAJOR.ogg,MAJOR.mp3,42,0,CFD-BF-005-020-A-resized.jpg,0,0,,A,3,CFD-BF-005-020-A-resized.jpg,CFD-BF-037-013-A-resized.jpg,,,,,,,,,,,,,,,,,,,,,,,,,,,,,,,,,,,,,,,,,,,,,,,
,,,,,,,,,,,,,13570,2020-09-30_14h30.57.246,pmfbcont,2020.1.3,MacIntel,60,,,,,,,,,,,,,,,,,,,,,,,,,,,,,,,,,,,,,,f,1,0.693,13570,2020-09-30_14h30.57.246,pmfbcont,pmface-cont-black,159,,CFD-BF-041-018-F-resized.jpg,Neg,blue,0,f,0.693,space,0.223,space,0.223,1,54,158,37,1,,pinball,,Neg,f,blue,GREET.ogg,GREET.mp3,38,0,CFD-BF-041-018-F-resized.jpg,0,0,,F,12,CFD-BF-041-018-F-resized.jpg,CFD-BF-027-016-F-resized.jpg,,,,,,,,,,,,,,,,,,,,,,,,,,,,,,,,,,,,,,,,,,,,,,,
,,,,,,,,,,,,,13570,2020-09-30_14h30.57.246,pmfbcont,2020.1.3,MacIntel,60,,,,,,,,,,,,,,,,,,,,,,,,,,,,,,,,,,,,,,f,1,0.661,13570,2020-09-30_14h30.57.246,pmfbcont,pmface-cont-black,160,,CFD-BF-049-039-A-resized.jpg,Neg,green,0,f,0.661,space,0.233,space,0.233,1,55,159,48,1,,clip,,Neg,f,green,MIMIC.ogg,MIMIC.mp3,49,0,CFD-BF-049-039-A-resized.jpg,0,0,,A,10,CFD-BF-049-039-A-resized.jpg,CFD-BF-024-024-A-resized.jpg,,,,,,,,,,,,,,,,,,,,,,,,,,,,,,,,,,,,,,,,,,,,,,,
,,,,,,,,,,,,,13570,2020-09-30_14h30.57.246,pmfbcont,2020.1.3,MacIntel,60,,,,,,,,,,,,,,,,,,,,,,,,,,,,,,,,,,,,,,f,1,0.725,13570,2020-09-30_14h30.57.246,pmfbcont,pmface-cont-black,161,,CFD-BF-013-026-F-resized.jpg,Neg,blue,0,f,0.725,space,0.234,space,0.234,1,56,160,33,1,,rohan,,Neg,f,blue,GLASS.ogg,GLASS.mp3,34,0,CFD-BF-013-026-F-resized.jpg,0,0,,F,8,CFD-BF-013-026-F-resized.jpg,CFD-BF-021-012-F-resized.jpg,,,,,,,,,,,,,,,,,,,,,,,,,,,,,,,,,,,,,,,,,,,,,,,
,,,,,,,,,,,,,13570,2020-09-30_14h30.57.246,pmfbcont,2020.1.3,MacIntel,60,,,,,,,,,,,,,,,,,,,,,,,,,,,,,,,,,,,,,,j,1,0.626,13570,2020-09-30_14h30.57.246,pmfbcont,pmface-cont-black,162,,CFD-BM-019-008-HC-resized.jpg,Pos,orange,0,j,0.626,space,0.138,space,0.138,1,57,161,70,1,,zzzz,,Pos,j,orange,MIRROR.ogg,MIRROR.mp22,71,0,CFD-BM-019-008-HC-resized.jpg,0,0,,HC,6,CFD-BM-019-008-HC-resized.jpg,CFD-BM-034-035-HC-resized.jpg,,,,,,,,,,,,,,,,,,,,,,,,,,,,,,,,,,,,,,,,,,,,,,,
,,,,,,,,,,,,,13570,2020-09-30_14h30.57.246,pmfbcont,2020.1.3,MacIntel,60,,,,,,,,,,,,,,,,,,,,,,,,,,,,,,,,,,,,,,j,1,0.541,13570,2020-09-30_14h30.57.246,pmfbcont,pmface-cont-black,163,,CFD-BF-010-003-HO-resized.jpg,Pos,blue,0,j,0.541,space,0.184,space,0.184,1,58,162,5,1,,percil,,Pos,j,blue,DESIRE.ogg,DESIRE.mp3,6,0,CFD-BF-010-003-HO-resized.jpg,0,0,,HO,6,CFD-BF-010-003-HO-resized.jpg,CFD-BF-036-030-HO-resized.jpg,,,,,,,,,,,,,,,,,,,,,,,,,,,,,,,,,,,,,,,,,,,,,,,
,,,,,,,,,,,,,13570,2020-09-30_14h30.57.246,pmfbcont,2020.1.3,MacIntel,60,,,,,,,,,,,,,,,,,,,,,,,,,,,,,,,,,,,,,,j,1,0.614,13570,2020-09-30_14h30.57.246,pmfbcont,pmface-cont-black,164,,CFD-BF-006-008-HC-resized.jpg,Pos,green,0,j,0.614,space,0.252,space,0.252,1,59,163,16,1,,toaster,,Pos,j,green,FAMOUS.ogg,FAMOUS.mp3,17,0,CFD-BF-006-008-HC-resized.jpg,0,0,,HC,4,CFD-BF-006-008-HC-resized.jpg,CFD-BF-017-007-HC-resized.jpg,,,,,,,,,,,,,,,,,,,,,,,,,,,,,,,,,,,,,,,,,,,,,,,
,,,,,,,,,,,,,13570,2020-09-30_14h30.57.246,pmfbcont,2020.1.3,MacIntel,60,,,,,,,,,,,,,,,,,,,,,,,,,,,,,,,,,,,,,,j,1,0.73,13570,2020-09-30_14h30.57.246,pmfbcont,pmface-cont-black,165,,CFD-BF-050-008-HC-resized.jpg,Pos,blue,0,j,0.73,space,0.156,space,0.156,1,60,164,21,1,,rehad,,Pos,j,blue,FLAME.ogg,FLAME.mp3,22,0,CFD-BF-050-008-HC-resized.jpg,0,0,,HC,9,CFD-BF-050-008-HC-resized.jpg,CFD-BF-023-012-HC-resized.jpg,,,,,,,,,,,,,,,,,,,,,,,,,,,,,,,,,,,,,,,,,,,,,,,
,,,,,,,,,,,,,13570,2020-09-30_14h30.57.246,pmfbcont,2020.1.3,MacIntel,60,,,,,,,,,,,,,,,,,,,,,,,,,,,,,,,,,,,,,,f,1,0.628,13570,2020-09-30_14h30.57.246,pmfbcont,pmface-cont-black,166,,CFD-BM-002-016-A-resized.jpg,Neg,purple,0,f,0.628,space,0.438,space,0.438,1,61,165,91,1,,zzzz,,Neg,f,purple,MIRROR.ogg,MIRROR.mp43,92,0,CFD-BM-002-016-A-resized.jpg,0,0,,A,1,CFD-BM-002-016-A-resized.jpg,CFD-BM-028-012-A-resized.jpg,,,,,,,,,,,,,,,,,,,,,,,,,,,,,,,,,,,,,,,,,,,,,,,
,,,,,,,,,,,,,13570,2020-09-30_14h30.57.246,pmfbcont,2020.1.3,MacIntel,60,,,,,,,,,,,,,,,,,,,,,,,,,,,,,,,,,,,,,,f,1,0.61,13570,2020-09-30_14h30.57.246,pmfbcont,pmface-cont-black,167,,CFD-BM-011-020-A-resized.jpg,Neg,green,0,f,0.61,space,0.217,space,0.217,1,62,166,92,1,,zzzz,,Neg,f,green,MIRROR.ogg,MIRROR.mp44,93,0,CFD-BM-011-020-A-resized.jpg,0,0,,A,2,CFD-BM-011-020-A-resized.jpg,CFD-BM-030-041-A-resized.jpg,,,,,,,,,,,,,,,,,,,,,,,,,,,,,,,,,,,,,,,,,,,,,,,
,,,,,,,,,,,,,13570,2020-09-30_14h30.57.246,pmfbcont,2020.1.3,MacIntel,60,,,,,,,,,,,,,,,,,,,,,,,,,,,,,,,,,,,,,,f,1,1.158,13570,2020-09-30_14h30.57.246,pmfbcont,pmface-cont-black,168,,CFD-BM-019-049-F-resized.jpg,Neg,purple,0,f,1.158,space,0.2,space,0.2,1,63,167,83,1,,zzzz,,Neg,f,purple,MIRROR.ogg,MIRROR.mp35,84,0,CFD-BM-019-049-F-resized.jpg,0,0,,F,6,CFD-BM-019-049-F-resized.jpg,CFD-BM-034-025-F-resized.jpg,,,,,,,,,,,,,,,,,,,,,,,,,,,,,,,,,,,,,,,,,,,,,,,
,,,,,,,,,,,,,13570,2020-09-30_14h30.57.246,pmfbcont,2020.1.3,MacIntel,60,,,,,,,,,,,,,,,,,,,,,,,,,,,,,,,,,,,,,,j,1,0.757,13570,2020-09-30_14h30.57.246,pmfbcont,pmface-cont-black,169,,CFD-BF-013-005-HC-resized.jpg,Pos,green,0,j,0.757,space,0.086,space,0.086,1,64,168,20,1,,lapaxer,,Pos,j,green,FIXED.ogg,FIXED.mp3,21,0,CFD-BF-013-005-HC-resized.jpg,0,0,,HC,8,CFD-BF-013-005-HC-resized.jpg,CFD-BF-021-015-HC-resized.jpg,,,,,,,,,,,,,,,,,,,,,,,,,,,,,,,,,,,,,,,,,,,,,,,
,,,,,,,,,,,,,13570,2020-09-30_14h30.57.246,pmfbcont,2020.1.3,MacIntel,60,,,,,,,,,,,,,,,,,,,,,,,,,,,,,,,,,,,,,,j,1,0.627,13570,2020-09-30_14h30.57.246,pmfbcont,pmface-cont-black,170,,CFD-BM-018-004-HC-resized.jpg,Pos,blue,0,j,0.627,space,0.183,space,0.183,1,65,169,69,1,,zzzz,,Pos,j,blue,MIRROR.ogg,MIRROR.mp21,70,0,CFD-BM-018-004-HC-resized.jpg,0,0,,HC,5,CFD-BM-018-004-HC-resized.jpg,CFD-BM-033-026-HC-resized.jpg,,,,,,,,,,,,,,,,,,,,,,,,,,,,,,,,,,,,,,,,,,,,,,,
,,,,,,,,,,,,,13570,2020-09-30_14h30.57.246,pmfbcont,2020.1.3,MacIntel,60,,,,,,,,,,,,,,,,,,,,,,,,,,,,,,,,,,,,,,f,1,1.124,13570,2020-09-30_14h30.57.246,pmfbcont,pmface-cont-black,171,,CFD-BF-041-047-A-resized.jpg,Neg,orange,0,f,1.124,space,0.162,space,0.162,1,66,170,50,1,,atout,,Neg,f,orange,MINUTE.ogg,MINUTE.mp3,51,0,CFD-BF-041-047-A-resized.jpg,0,0,,A,12,CFD-BF-041-047-A-resized.jpg,CFD-BF-027-008-A-resized.jpg,,,,,,,,,,,,,,,,,,,,,,,,,,,,,,,,,,,,,,,,,,,,,,,
,,,,,,,,,,,,,13570,2020-09-30_14h30.57.246,pmfbcont,2020.1.3,MacIntel,60,,,,,,,,,,,,,,,,,,,,,,,,,,,,,,,,,,,,,,j,1,1.444,13570,2020-09-30_14h30.57.246,pmfbcont,pmface-cont-black,172,,CFD-BF-008-007-HC-resized.jpg,Pos,blue,0,j,1.444,space,0.136,space,0.136,1,67,171,17,1,,candy,,Pos,j,blue,FINAL.ogg,FINAL.mp3,18,0,CFD-BF-008-007-HC-resized.jpg,0,0,,HC,5,CFD-BF-008-007-HC-resized.jpg,CFD-BF-018-041-HC-resized.jpg,,,,,,,,,,,,,,,,,,,,,,,,,,,,,,,,,,,,,,,,,,,,,,,
,,,,,,,,,,,,,13570,2020-09-30_14h30.57.246,pmfbcont,2020.1.3,MacIntel,60,,,,,,,,,,,,,,,,,,,,,,,,,,,,,,,,,,,,,,f,1,0.544,13570,2020-09-30_14h30.57.246,pmfbcont,pmface-cont-black,173,,CFD-BM-011-013-F-resized.jpg,Neg,purple,0,f,0.544,space,0.217,space,0.217,1,68,172,79,1,,zzzz,,Neg,f,purple,MIRROR.ogg,MIRROR.mp31,80,0,CFD-BM-011-013-F-resized.jpg,0,0,,F,2,CFD-BM-011-013-F-resized.jpg,CFD-BM-030-065-F-resized.jpg,,,,,,,,,,,,,,,,,,,,,,,,,,,,,,,,,,,,,,,,,,,,,,,
,,,,,,,,,,,,,13570,2020-09-30_14h30.57.246,pmfbcont,2020.1.3,MacIntel,60,,,,,,,,,,,,,,,,,,,,,,,,,,,,,,,,,,,,,,j,1,0.675,13570,2020-09-30_14h30.57.246,pmfbcont,pmface-cont-black,174,,CFD-BF-002-006-HC-resized.jpg,Pos,blue,0,j,0.675,space,0.199,space,0.199,1,69,173,13,1,,cotifu,,Pos,j,blue,DRINK.ogg,DRINK.mp3,14,0,CFD-BF-002-006-HC-resized.jpg,0,0,,HC,1,CFD-BF-002-006-HC-resized.jpg,CFD-BF-014-005-HC-resized.jpg,,,,,,,,,,,,,,,,,,,,,,,,,,,,,,,,,,,,,,,,,,,,,,,
,,,,,,,,,,,,,13570,2020-09-30_14h30.57.246,pmfbcont,2020.1.3,MacIntel,60,,,,,,,,,,,,,,,,,,,,,,,,,,,,,,,,,,,,,,j,1,0.709,13570,2020-09-30_14h30.57.246,pmfbcont,pmface-cont-black,175,,CFD-BM-025-040-HO-resized.jpg,Pos,purple,0,j,0.709,space,0.207,space,0.207,1,70,174,63,1,,zzzz,,Pos,j,purple,MIRROR.ogg,MIRROR.mp15,64,0,CFD-BM-025-040-HO-resized.jpg,0,0,,HO,12,CFD-BM-025-040-HO-resized.jpg,CFD-BM-045-055-HO-resized.jpg,,,,,,,,,,,,,,,,,,,,,,,,,,,,,,,,,,,,,,,,,,,,,,,
,,,,,,,,,,,,,13570,2020-09-30_14h30.57.246,pmfbcont,2020.1.3,MacIntel,60,,,,,,,,,,,,,,,,,,,,,,,,,,,,,,,,,,,,,,f,1,0.892,13570,2020-09-30_14h30.57.246,pmfbcont,pmface-cont-black,176,,CFD-BM-025-045-A-resized.jpg,Neg,orange,0,f,0.892,space,0.217,space,0.217,1,71,175,102,1,,zzzz,,Neg,f,orange,MIRROR.ogg,MIRROR.mp54,103,0,CFD-BM-025-045-A-resized.jpg,0,0,,A,12,CFD-BM-025-045-A-resized.jpg,CFD-BM-045-061-A-resized.jpg,,,,,,,,,,,,,,,,,,,,,,,,,,,,,,,,,,,,,,,,,,,,,,,
,,,,,,,,,,,,,13570,2020-09-30_14h30.57.246,pmfbcont,2020.1.3,MacIntel,60,,,,,,,,,,,,,,,,,,,,,,,,,,,,,,,,,,,,,,j,1,0.659,13570,2020-09-30_14h30.57.246,pmfbcont,pmface-cont-black,177,,CFD-BM-020-026-HO-resized.jpg,Pos,orange,0,j,0.659,space,0.216,space,0.216,1,72,176,58,1,,zzzz,,Pos,j,orange,MIRROR.ogg,MIRROR.mp10,59,0,CFD-BM-020-026-HO-resized.jpg,0,0,,HO,7,CFD-BM-020-026-HO-resized.jpg,CFD-BM-036-004-HO-resized.jpg,,,,,,,,,,,,,,,,,,,,,,,,,,,,,,,,,,,,,,,,,,,,,,,
,,,,,,,,,,,,,13570,2020-09-30_14h30.57.246,pmfbcont,2020.1.3,MacIntel,60,,,,,,,,,,,,,,,,,,,,,,,,,,,,,,,,,,,,,,j,1,0.728,13570,2020-09-30_14h30.57.246,pmfbcont,pmface-cont-black,178,,CFD-BM-015-016-HO-resized.jpg,Pos,purple,0,j,0.728,space,0.216,space,0.216,1,73,177,55,1,,zzzz,,Pos,j,purple,MIRROR.ogg,MIRROR.mp7,56,0,CFD-BM-015-016-HO-resized.jpg,0,0,,HO,4,CFD-BM-015-016-HO-resized.jpg,CFD-BM-032-007-HO-resized.jpg,,,,,,,,,,,,,,,,,,,,,,,,,,,,,,,,,,,,,,,,,,,,,,,
,,,,,,,,,,,,,13570,2020-09-30_14h30.57.246,pmfbcont,2020.1.3,MacIntel,60,,,,,,,,,,,,,,,,,,,,,,,,,,,,,,,,,,,,,,j,1,0.658,13570,2020-09-30_14h30.57.246,pmfbcont,pmface-cont-black,179,,CFD-BF-050-004-HO-resized.jpg,Pos,green,0,j,0.658,space,0.149,space,0.149,1,74,178,8,1,,haircut,,Pos,j,green,DOCTOR.ogg,DOCTOR.mp3,9,0,CFD-BF-050-004-HO-resized.jpg,0,0,,HO,9,CFD-BF-050-004-HO-resized.jpg,CFD-BF-023-003-HO-resized.jpg,,,,,,,,,,,,,,,,,,,,,,,,,,,,,,,,,,,,,,,,,,,,,,,
,,,,,,,,,,,,,13570,2020-09-30_14h30.57.246,pmfbcont,2020.1.3,MacIntel,60,,,,,,,,,,,,,,,,,,,,,,,,,,,,,,,,,,,,,,j,1,1.017,13570,2020-09-30_14h30.57.246,pmfbcont,pmface-cont-black,180,,CFD-BM-021-022-HO-resized.jpg,Pos,purple,0,j,1.017,space,0.138,space,0.138,1,75,179,59,1,,zzzz,,Pos,j,purple,MIRROR.ogg,MIRROR.mp11,60,0,CFD-BM-021-022-HO-resized.jpg,0,0,,HO,8,CFD-BM-021-022-HO-resized.jpg,CFD-BM-037-036-HO-resized.jpg,,,,,,,,,,,,,,,,,,,,,,,,,,,,,,,,,,,,,,,,,,,,,,,
,,,,,,,,,,,,,13570,2020-09-30_14h30.57.246,pmfbcont,2020.1.3,MacIntel,60,,,,,,,,,,,,,,,,,,,,,,,,,,,,,,,,,,,,,,j,1,1.078,13570,2020-09-30_14h30.57.246,pmfbcont,pmface-cont-black,181,,CFD-BF-010-005-HC-resized.jpg,Pos,orange,0,j,1.078,space,0.137,space,0.137,1,76,180,18,1,,fakily,,Pos,j,orange,FAVOR.ogg,FAVOR.mp3,19,0,CFD-BF-010-005-HC-resized.jpg,0,0,,HC,6,CFD-BF-010-005-HC-resized.jpg,CFD-BF-036-032-HC-resized.jpg,,,,,,,,,,,,,,,,,,,,,,,,,,,,,,,,,,,,,,,,,,,,,,,
,,,,,,,,,,,,,13570,2020-09-30_14h30.57.246,pmfbcont,2020.1.3,MacIntel,60,,,,,,,,,,,,,,,,,,,,,,,,,,,,,,,,,,,,,,j,1,0.66,13570,2020-09-30_14h30.57.246,pmfbcont,pmface-cont-black,182,,CFD-BF-049-034-HO-resized.jpg,Pos,blue,0,j,0.66,space,0.202,space,0.202,1,77,181,9,1,,cotton,,Pos,j,blue,DOLLAR.ogg,DOLLAR.mp3,10,0,CFD-BF-049-034-HO-resized.jpg,0,0,,HO,10,CFD-BF-049-034-HO-resized.jpg,CFD-BF-024-005-HO-resized.jpg,,,,,,,,,,,,,,,,,,,,,,,,,,,,,,,,,,,,,,,,,,,,,,,
,,,,,,,,,,,,,13570,2020-09-30_14h30.57.246,pmfbcont,2020.1.3,MacIntel,60,,,,,,,,,,,,,,,,,,,,,,,,,,,,,,,,,,,,,,j,1,0.632,13570,2020-09-30_14h30.57.246,pmfbcont,pmface-cont-black,183,,CFD-BM-013-014-HC-resized.jpg,Pos,purple,0,j,0.632,space,0.232,space,0.232,1,78,182,67,1,,zzzz,,Pos,j,purple,MIRROR.ogg,MIRROR.mp19,68,0,CFD-BM-013-014-HC-resized.jpg,0,0,,HC,3,CFD-BM-013-014-HC-resized.jpg,CFD-BM-031-009-HC-resized.jpg,,,,,,,,,,,,,,,,,,,,,,,,,,,,,,,,,,,,,,,,,,,,,,,
,,,,,,,,,,,,,13570,2020-09-30_14h30.57.246,pmfbcont,2020.1.3,MacIntel,60,,,,,,,,,,,,,,,,,,,,,,,,,,,,,,,,,,,,,,f,1,0.724,13570,2020-09-30_14h30.57.246,pmfbcont,pmface-cont-black,184,,CFD-BF-040-051-A-resized.jpg,Neg,purple,0,f,0.724,space,0.233,space,0.233,1,79,183,51,1,,bihue,,Neg,f,purple,MIRROR.ogg,MIRROR.mp3,52,0,CFD-BF-040-051-A-resized.jpg,0,0,,A,13,CFD-BF-040-051-A-resized.jpg,CFD-BF-028-021-A-resized.jpg,,,,,,,,,,,,,,,,,,,,,,,,,,,,,,,,,,,,,,,,,,,,,,,
,,,,,,,,,,,,,13570,2020-09-30_14h30.57.246,pmfbcont,2020.1.3,MacIntel,60,,,,,,,,,,,,,,,,,,,,,,,,,,,,,,,,,,,,,,f,1,0.657,13570,2020-09-30_14h30.57.246,pmfbcont,pmface-cont-black,185,,CFD-BF-011-011-A-resized.jpg,Neg,blue,0,f,0.657,space,0.386,space,0.386,1,80,184,45,1,,guitar,,Neg,f,blue,MAYBE.ogg,MAYBE.mp3,46,0,CFD-BF-011-011-A-resized.jpg,0,0,,A,7,CFD-BF-011-011-A-resized.jpg,CFD-BF-031-020-A-resized.jpg,,,,,,,,,,,,,,,,,,,,,,,,,,,,,,,,,,,,,,,,,,,,,,,
,,,,,,,,,,,,,13570,2020-09-30_14h30.57.246,pmfbcont,2020.1.3,MacIntel,60,,,,,,,,,,,,,,,,,,,,,,,,,,,,,,,,,,,,,,j,1,1.029,13570,2020-09-30_14h30.57.246,pmfbcont,pmface-cont-black,186,,CFD-BF-005-005-HO-resized.jpg,Pos,orange,0,j,1.029,space,0.202,space,0.202,1,81,185,2,1,,enganen,,Pos,j,orange,COVER.ogg,COVER.mp3,3,0,CFD-BF-005-005-HO-resized.jpg,0,0,,HO,3,CFD-BF-005-005-HO-resized.jpg,CFD-BF-037-026-HO-resized.jpg,,,,,,,,,,,,,,,,,,,,,,,,,,,,,,,,,,,,,,,,,,,,,,,
,,,,,,,,,,,,,13570,2020-09-30_14h30.57.246,pmfbcont,2020.1.3,MacIntel,60,,,,,,,,,,,,,,,,,,,,,,,,,,,,,,,,,,,,,,j,1,0.608,13570,2020-09-30_14h30.57.246,pmfbcont,pmface-cont-black,187,,CFD-BF-041-038-HC-resized.jpg,Pos,green,0,j,0.608,space,0.341,space,0.341,1,82,186,24,1,,knife,,Pos,j,green,FLOWER.ogg,FLOWER.mp3,25,0,CFD-BF-041-038-HC-resized.jpg,0,0,,HC,12,CFD-BF-041-038-HC-resized.jpg,CFD-BF-027-013-HC-resized.jpg,,,,,,,,,,,,,,,,,,,,,,,,,,,,,,,,,,,,,,,,,,,,,,,
,,,,,,,,,,,,,13570,2020-09-30_14h30.57.246,pmfbcont,2020.1.3,MacIntel,60,,,,,,,,,,,,,,,,,,,,,,,,,,,,,,,,,,,,,,j,1,0.607,13570,2020-09-30_14h30.57.246,pmfbcont,pmface-cont-black,188,,CFD-BM-026-006-HC-resized.jpg,Pos,blue,0,j,0.607,space,0.215,space,0.215,1,83,187,77,1,,zzzz,,Pos,j,blue,MIRROR.ogg,MIRROR.mp29,78,0,CFD-BM-026-006-HC-resized.jpg,0,0,,HC,13,CFD-BM-026-006-HC-resized.jpg,CFD-BM-046-042-HC-resized.jpg,,,,,,,,,,,,,,,,,,,,,,,,,,,,,,,,,,,,,,,,,,,,,,,
