Silence_resp.keys,Silence_resp.rt,Consent_resp.keys,Consent_resp.rt,Lang_resp.keys,Lang_resp.rt,Race_resp.keys,Race_resp.rt,xxx.thisRepN,xxx.thisTrialN,xxx.thisN,xxx.thisIndex,xxx.ran,participant,date,expName,psychopyVersion,OS,frameRate,OGTIns1_resp.keys,OGTIns1_resp.rt,Missing_resp.keys,face_trials.thisRepN,face_trials.thisTrialN,face_trials.thisN,face_trials.thisIndex,face_trials.ran,missingPerson,sex,name,PMIns1_resp.keys,PM_INS_LOOP.thisRepN,PM_INS_LOOP.thisTrialN,PM_INS_LOOP.thisN,PM_INS_LOOP.thisIndex,PM_INS_LOOP.ran,FinalRecalIns_resp.keys,FinalRecalIns_resp.rt,finalrecall_subid,finalrecall_date,finalrecall_exp,finalrecall_cond,finalrecall_word,finalcuerecall_trialCounter,finalrecall_typedWord,finalrecall_wordRT,finalrecall_recallList,finalrecall_startTrial,finalrecall_endTrial,finalrecall_elapsedTime,finalrecall_startRecallTime,FinalRecall_Loop.thisRepN,FinalRecall_Loop.thisTrialN,FinalRecall_Loop.thisN,FinalRecall_Loop.thisIndex,FinalRecall_Loop.ran,OGT_resp.keys,OGT_resp.corr,OGT_resp.rt,ogt_subid,ogt_date,ogt_exp,ogt_cond,ogt_trialnum,ogt_word,ogt_img,ogt_class,ogt_color,ogt_cue,ogt_resp,ogt_rt,OGTWaiting_resp.keys,OGTWaiting_resp.rt,OGTWait_resp,OGTWait_rt,OGT_trials.thisRepN,OGT_trials.thisTrialN,OGT_trials.thisN,OGT_trials.thisIndex,OGT_trials.ran,Word,OldWord,OldStimClass,StimClass,CorrAns,StimColor,Wordlist_Ogg,Wordlist_MP3,Trial,Cue,imageFile,iposX,iposY,StimDir,EmotClass,FaceNum,imageFile1,imageFile2,imageFile3,imageFile4,OGT_Loop.thisRepN,OGT_Loop.thisTrialN,OGT_Loop.thisN,OGT_Loop.thisIndex,OGT_Loop.ran,studyFaceList,Recog_Ins_resp.keys,Recog_Ins_resp.rt,Recog_resp.keys,Recog_resp.rt,recog_subid,recog_date,recog_exp,recog_cond,recog_race,recog_lang,recog_trialnum,recog_word,recog_img,recog_resp,recog_rt,recog_studyList,recog_studyList0,recog_studyList1,recog_studyList2,recog_listPos,recog_listNeg,recog_listHO,recog_listHC,recog_listA,recog_listF,Recog_LOOP.thisRepN,Recog_LOOP.thisTrialN,Recog_LOOP.thisN,Recog_LOOP.thisIndex,Recog_LOOP.ran,ImageFile1,Debrief_resp.keys,Debrief_resp.rt,Thankyou_resp.keys,EXP.thisRepN,EXP.thisTrialN,EXP.thisN,EXP.thisIndex,EXP.ran
space,1.91902,y,110.81198,n,5.943165,5,6.8197,0,0,0,0,1,13597,2020-09-29_15h01.50.074,pmfbcont,2020.1.3,MacIntel,60,,,,,,,,,,,,,,,,,,,,,,,,,,,,,,,,,,,,,,,,,,,,,,,,,,,,,,,,,,,,,,,,,,,,,,,,,,,,,,,,,,,,,,,,,,,,,,,,,,,,,,,,,,,,,,,,,,,,,,,,,,,,,,
,,,,,,,,,,,,,13597,2020-09-29_15h01.50.074,pmfbcont,2020.1.3,MacIntel,60,space,20.001885,,0,0,0,1,1,CFD-BF-250-121-N-resized.jpg,Female,Stacia,,,,,,,,,,,,,,,,,,,,,,,,,,,,,,,,,,,,,,,,,,,,,,,,,,,,,,,,,,,,,,,,,,,,,,,,,,,,,,,,,,,,,,,,,,,,,,,,,,,,,,,,,,,,,,,,,,,
,,,,,,,,,,,,,13597,2020-09-29_15h01.50.074,pmfbcont,2020.1.3,MacIntel,60,,,,,,,,,,,,,0,0,0,0,1,,,,,,,,,,,,,,,,,,,,,,,,,,,,,,,,,,,,,,,,,,,,,,,,,,,,,,,,,,,,,,,,,,,,,,,,,,,,,,,,,,,,,,,,,,,,,,,,,,,,,,,,,,,,,
,,,,,,,,,,,,,13597,2020-09-29_15h01.50.074,pmfbcont,2020.1.3,MacIntel,60,,,,,,,,,,,,,,,,,,space,6.350485,13597,2020-09-29_15h01.50.074,pmfbcont,pmface-cont-black,TENT,1,TENT,2.31063,"[""TENT""]",187.837915,190.14854,2.314075,187.8341,0,0,0,0,1,,,,,,,,,,,,,,,,,,,,,,,,,,,,,,,,,,,,,,,,,,,,,,,,,,,,,,,,,,,,,,,,,,,,,,,,,,,,,,,,,,,,,,,,,
,,,,,,,,,,,,,13597,2020-09-29_15h01.50.074,pmfbcont,2020.1.3,MacIntel,60,,,,,,,,,,,,,,,,,,,,13597,2020-09-29_15h01.50.074,pmfbcont,pmface-cont-black,TRAILMIX,2,TRAILMIX,7.61586,"[""TENT"",""TRAILMIX""]",190.14938,197.76524,9.931025,187.8341,1,0,1,0,1,,,,,,,,,,,,,,,,,,,,,,,,,,,,,,,,,,,,,,,,,,,,,,,,,,,,,,,,,,,,,,,,,,,,,,,,,,,,,,,,,,,,,,,,,
,,,,,,,,,,,,,13597,2020-09-29_15h01.50.074,pmfbcont,2020.1.3,MacIntel,60,,,,,,,,,,,,,,,,,,,,13597,2020-09-29_15h01.50.074,pmfbcont,pmface-cont-black,HIKINGBOOTS,3,HIKINGBOOTS,3.315265,"[""TENT"",""TRAILMIX"",""HIKINGBOOTS""]",197.766625,201.081885,13.247675,187.8341,2,0,2,0,1,,,,,,,,,,,,,,,,,,,,,,,,,,,,,,,,,,,,,,,,,,,,,,,,,,,,,,,,,,,,,,,,,,,,,,,,,,,,,,,,,,,,,,,,,
,,,,,,,,,,,,,13597,2020-09-29_15h01.50.074,pmfbcont,2020.1.3,MacIntel,60,,,,,,,,,,,,,,,,,,,,13597,2020-09-29_15h01.50.074,pmfbcont,pmface-cont-black,TOILETPAPER,4,TOILETPAPER,6.26597,"[""TENT"",""TRAILMIX"",""HIKINGBOOTS"",""TOILETPAPER""]",201.083415,207.34938,19.51519,187.8341,3,0,3,0,1,,,,,,,,,,,,,,,,,,,,,,,,,,,,,,,,,,,,,,,,,,,,,,,,,,,,,,,,,,,,,,,,,,,,,,,,,,,,,,,,,,,,,,,,,
,,,,,,,,,,,,,13597,2020-09-29_15h01.50.074,pmfbcont,2020.1.3,MacIntel,60,,,,,,,,,,,,,,,,,,,,13597,2020-09-29_15h01.50.074,pmfbcont,pmface-cont-black,SLEEPINGBAG,5,SLEEPINGBAG,3.764505,"[""TENT"",""TRAILMIX"",""HIKINGBOOTS"",""TOILETPAPER"",""SLEEPINGBAG""]",207.350525,211.11503,23.28086,187.8341,4,0,4,0,1,,,,,,,,,,,,,,,,,,,,,,,,,,,,,,,,,,,,,,,,,,,,,,,,,,,,,,,,,,,,,,,,,,,,,,,,,,,,,,,,,,,,,,,,,
,,,,,,,,,,,,,13597,2020-09-29_15h01.50.074,pmfbcont,2020.1.3,MacIntel,60,,,,,,,,,,,,,,,,,,,,13597,2020-09-29_15h01.50.074,pmfbcont,pmface-cont-black,WATERBOTTLE,6,WATERBOTTLE,3.049685,"[""TENT"",""TRAILMIX"",""HIKINGBOOTS"",""TOILETPAPER"",""SLEEPINGBAG"",""WATERBOTTLE""]",211.11581,214.16549,26.33128,187.8341,5,0,5,0,1,,,,,,,,,,,,,,,,,,,,,,,,,,,,,,,,,,,,,,,,,,,,,,,,,,,,,,,,,,,,,,,,,,,,,,,,,,,,,,,,,,,,,,,,,
,,,,,,,,,,,,,13597,2020-09-29_15h01.50.074,pmfbcont,2020.1.3,MacIntel,60,,,,,,,,,,,,,,,,,,,,13597,2020-09-29_15h01.50.074,pmfbcont,pmface-cont-black,GPS,7,GPS,1.915195,"[""TENT"",""TRAILMIX"",""HIKINGBOOTS"",""TOILETPAPER"",""SLEEPINGBAG"",""WATERBOTTLE"",""GPS""]",214.166915,216.08211,28.24791,187.8341,6,0,6,0,1,,,,,,,,,,,,,,,,,,,,,,,,,,,,,,,,,,,,,,,,,,,,,,,,,,,,,,,,,,,,,,,,,,,,,,,,,,,,,,,,,,,,,,,,,
,,,,,,,,,,,,,13597,2020-09-29_15h01.50.074,pmfbcont,2020.1.3,MacIntel,60,,,,,,,,,,,,,,,,,,,,13597,2020-09-29_15h01.50.074,pmfbcont,pmface-cont-black,BACKPACK,8,BACKPACK,5.81532,"[""TENT"",""TRAILMIX"",""HIKINGBOOTS"",""TOILETPAPER"",""SLEEPINGBAG"",""WATERBOTTLE"",""GPS"",""BACKPACK""]",216.082575,221.89789,34.063695,187.8341,7,0,7,0,1,,,,,,,,,,,,,,,,,,,,,,,,,,,,,,,,,,,,,,,,,,,,,,,,,,,,,,,,,,,,,,,,,,,,,,,,,,,,,,,,,,,,,,,,,
,,,,,,,,,,,,,13597,2020-09-29_15h01.50.074,pmfbcont,2020.1.3,MacIntel,60,,,,,,,,,,,,,,,,,,,,13597,2020-09-29_15h01.50.074,pmfbcont,pmface-cont-black,SUNSCREEN,9,SUNSCREEN,2.082825,"[""TENT"",""TRAILMIX"",""HIKINGBOOTS"",""TOILETPAPER"",""SLEEPINGBAG"",""WATERBOTTLE"",""GPS"",""BACKPACK"",""SUNSCREEN""]",221.899075,223.9819,36.147705,187.8341,8,0,8,0,1,,,,,,,,,,,,,,,,,,,,,,,,,,,,,,,,,,,,,,,,,,,,,,,,,,,,,,,,,,,,,,,,,,,,,,,,,,,,,,,,,,,,,,,,,
,,,,,,,,,,,,,13597,2020-09-29_15h01.50.074,pmfbcont,2020.1.3,MacIntel,60,,,,,,,,,,,,,,,,,,,,13597,2020-09-29_15h01.50.074,pmfbcont,pmface-cont-black,MOSQUITOSPRAY,10,MOSQUITOSPRAY,3.915905,"[""TENT"",""TRAILMIX"",""HIKINGBOOTS"",""TOILETPAPER"",""SLEEPINGBAG"",""WATERBOTTLE"",""GPS"",""BACKPACK"",""SUNSCREEN"",""MOSQUITOSPRAY""]",223.98237,227.89827,40.06407,187.8341,9,0,9,0,1,,,,,,,,,,,,,,,,,,,,,,,,,,,,,,,,,,,,,,,,,,,,,,,,,,,,,,,,,,,,,,,,,,,,,,,,,,,,,,,,,,,,,,,,,
,,,,,,,,,,,,,13597,2020-09-29_15h01.50.074,pmfbcont,2020.1.3,MacIntel,60,,,,,,,,,,,,,,,,,,,,13597,2020-09-29_15h01.50.074,pmfbcont,pmface-cont-black,SUNGLASSES,11,SUNGLASSES,2.16498,"[""TENT"",""TRAILMIX"",""HIKINGBOOTS"",""TOILETPAPER"",""SLEEPINGBAG"",""WATERBOTTLE"",""GPS"",""BACKPACK"",""SUNSCREEN"",""MOSQUITOSPRAY"",""SUNGLASSES""]",227.899515,230.064495,42.23031,187.8341,10,0,10,0,1,,,,,,,,,,,,,,,,,,,,,,,,,,,,,,,,,,,,,,,,,,,,,,,,,,,,,,,,,,,,,,,,,,,,,,,,,,,,,,,,,,,,,,,,,
,,,,,,,,,,,,,13597,2020-09-29_15h01.50.074,pmfbcont,2020.1.3,MacIntel,60,,,,,,,,,,,,,,,,,,,,13597,2020-09-29_15h01.50.074,pmfbcont,pmface-cont-black,SWEATSHIRT,12,SWEATSHIRT,2.40025,"[""TENT"",""TRAILMIX"",""HIKINGBOOTS"",""TOILETPAPER"",""SLEEPINGBAG"",""WATERBOTTLE"",""GPS"",""BACKPACK"",""SUNSCREEN"",""MOSQUITOSPRAY"",""SUNGLASSES"",""SWEATSHIRT""]",230.064985,232.465235,44.63107,187.8341,11,0,11,0,1,,,,,,,,,,,,,,,,,,,,,,,,,,,,,,,,,,,,,,,,,,,,,,,,,,,,,,,,,,,,,,,,,,,,,,,,,,,,,,,,,,,,,,,,,
,,,,,,,,,,,,,13597,2020-09-29_15h01.50.074,pmfbcont,2020.1.3,MacIntel,60,,,,,,,,,,,,,,,,,,,,13597,2020-09-29_15h01.50.074,pmfbcont,pmface-cont-black,POT,13,POT,2.4156,"[""TENT"",""TRAILMIX"",""HIKINGBOOTS"",""TOILETPAPER"",""SLEEPINGBAG"",""WATERBOTTLE"",""GPS"",""BACKPACK"",""SUNSCREEN"",""MOSQUITOSPRAY"",""SUNGLASSES"",""SWEATSHIRT"",""POT""]",232.4656,234.881195,47.046995,187.8341,12,0,12,0,1,,,,,,,,,,,,,,,,,,,,,,,,,,,,,,,,,,,,,,,,,,,,,,,,,,,,,,,,,,,,,,,,,,,,,,,,,,,,,,,,,,,,,,,,,
,,,,,,,,,,,,,13597,2020-09-29_15h01.50.074,pmfbcont,2020.1.3,MacIntel,60,,,,,,,,,,,,,,,,,,,,13597,2020-09-29_15h01.50.074,pmfbcont,pmface-cont-black,WATER,14,WATER,1.882365,"[""TENT"",""TRAILMIX"",""HIKINGBOOTS"",""TOILETPAPER"",""SLEEPINGBAG"",""WATERBOTTLE"",""GPS"",""BACKPACK"",""SUNSCREEN"",""MOSQUITOSPRAY"",""SUNGLASSES"",""SWEATSHIRT"",""POT"",""WATER""]",234.88166,236.764025,48.92983,187.8341,13,0,13,0,1,,,,,,,,,,,,,,,,,,,,,,,,,,,,,,,,,,,,,,,,,,,,,,,,,,,,,,,,,,,,,,,,,,,,,,,,,,,,,,,,,,,,,,,,,
,,,,,,,,,,,,,13597,2020-09-29_15h01.50.074,pmfbcont,2020.1.3,MacIntel,60,,,,,,,,,,,,,,,,,,,,13597,2020-09-29_15h01.50.074,pmfbcont,pmface-cont-black,HOTDOGS,15,HOTDOGS,4.53366,"[""TENT"",""TRAILMIX"",""HIKINGBOOTS"",""TOILETPAPER"",""SLEEPINGBAG"",""WATERBOTTLE"",""GPS"",""BACKPACK"",""SUNSCREEN"",""MOSQUITOSPRAY"",""SUNGLASSES"",""SWEATSHIRT"",""POT"",""WATER"",""HOTDOGS""]",236.76454,241.2982,53.463995,187.8341,14,0,14,0,1,,,,,,,,,,,,,,,,,,,,,,,,,,,,,,,,,,,,,,,,,,,,,,,,,,,,,,,,,,,,,,,,,,,,,,,,,,,,,,,,,,,,,,,,,
,,,,,,,,,,,,,13597,2020-09-29_15h01.50.074,pmfbcont,2020.1.3,MacIntel,60,,,,,,,,,,,,,,,,,,,,13597,2020-09-29_15h01.50.074,pmfbcont,pmface-cont-black,SMORES,16,SMORES,1.49823,"[""TENT"",""TRAILMIX"",""HIKINGBOOTS"",""TOILETPAPER"",""SLEEPINGBAG"",""WATERBOTTLE"",""GPS"",""BACKPACK"",""SUNSCREEN"",""MOSQUITOSPRAY"",""SUNGLASSES"",""SWEATSHIRT"",""POT"",""WATER"",""HOTDOGS"",""SMORES""]",241.299385,242.797615,54.96342,187.8341,15,0,15,0,1,,,,,,,,,,,,,,,,,,,,,,,,,,,,,,,,,,,,,,,,,,,,,,,,,,,,,,,,,,,,,,,,,,,,,,,,,,,,,,,,,,,,,,,,,
,,,,,,,,,,,,,13597,2020-09-29_15h01.50.074,pmfbcont,2020.1.3,MacIntel,60,,,,,,,,,,,,,,,,,,,,13597,2020-09-29_15h01.50.074,pmfbcont,pmface-cont-black,LIGHTER,17,LIGHTER,5.04991,"[""TENT"",""TRAILMIX"",""HIKINGBOOTS"",""TOILETPAPER"",""SLEEPINGBAG"",""WATERBOTTLE"",""GPS"",""BACKPACK"",""SUNSCREEN"",""MOSQUITOSPRAY"",""SUNGLASSES"",""SWEATSHIRT"",""POT"",""WATER"",""HOTDOGS"",""SMORES"",""LIGHTER""]",242.7981,247.848005,60.01368,187.8341,16,0,16,0,1,,,,,,,,,,,,,,,,,,,,,,,,,,,,,,,,,,,,,,,,,,,,,,,,,,,,,,,,,,,,,,,,,,,,,,,,,,,,,,,,,,,,,,,,,
,,,,,,,,,,,,,13597,2020-09-29_15h01.50.074,pmfbcont,2020.1.3,MacIntel,60,,,,,,,,,,,,,,,,,,,,,,,,,,,,,,,,,,,,,,f,1,1.94005,13597,2020-09-29_15h01.50.074,pmfbcont,pmface-cont-black,1,,CFD-BF-005-020-A-resized.jpg,Neg,blue,0,f,1.94005,space,0.9492,space,0.9492,0,0,0,41,1,,skafast,,Neg,f,blue,MAJOR.ogg,MAJOR.mp3,42,0,CFD-BF-005-020-A-resized.jpg,0,0,,A,3,CFD-BF-005-020-A-resized.jpg,CFD-BF-037-013-A-resized.jpg,,,,,,,,,,,,,,,,,,,,,,,,,,,,,,,,,,,,,,,,,,,,,,,
,,,,,,,,,,,,,13597,2020-09-29_15h01.50.074,pmfbcont,2020.1.3,MacIntel,60,,,,,,,,,,,,,,,,,,,,,,,,,,,,,,,,,,,,,,j,1,1.191375,13597,2020-09-29_15h01.50.074,pmfbcont,pmface-cont-black,2,,CFD-BM-021-022-HO-resized.jpg,Pos,purple,0,j,1.191375,space,0.355,space,0.355,0,1,1,59,1,,zzzz,,Pos,j,purple,MIRROR.ogg,MIRROR.mp11,60,0,CFD-BM-021-022-HO-resized.jpg,0,0,,HO,8,CFD-BM-021-022-HO-resized.jpg,CFD-BM-037-036-HO-resized.jpg,,,,,,,,,,,,,,,,,,,,,,,,,,,,,,,,,,,,,,,,,,,,,,,
,,,,,,,,,,,,,13597,2020-09-29_15h01.50.074,pmfbcont,2020.1.3,MacIntel,60,,,,,,,,,,,,,,,,,,,,,,,,,,,,,,,,,,,,,,f,1,2.50397,13597,2020-09-29_15h01.50.074,pmfbcont,pmface-cont-black,3,,CFD-BF-041-047-A-resized.jpg,Neg,orange,0,f,2.50397,space,0.31509,space,0.31509,0,2,2,50,1,,atout,,Neg,f,orange,MINUTE.ogg,MINUTE.mp3,51,0,CFD-BF-041-047-A-resized.jpg,0,0,,A,12,CFD-BF-041-047-A-resized.jpg,CFD-BF-027-008-A-resized.jpg,,,,,,,,,,,,,,,,,,,,,,,,,,,,,,,,,,,,,,,,,,,,,,,
,,,,,,,,,,,,,13597,2020-09-29_15h01.50.074,pmfbcont,2020.1.3,MacIntel,60,,,,,,,,,,,,,,,,,,,,,,,,,,,,,,,,,,,,,,j,1,0.784665,13597,2020-09-29_15h01.50.074,pmfbcont,pmface-cont-black,4,,CFD-BF-008-003-HO-resized.jpg,Pos,green,0,j,0.784665,space,0.318685,space,0.318685,0,3,3,4,1,,almond,,Pos,j,green,DEGREE.ogg,DEGREE.mp3,5,0,CFD-BF-008-003-HO-resized.jpg,0,0,,HO,5,CFD-BF-008-003-HO-resized.jpg,CFD-BF-018-040-HO-resized.jpg,,,,,,,,,,,,,,,,,,,,,,,,,,,,,,,,,,,,,,,,,,,,,,,
,,,,,,,,,,,,,13597,2020-09-29_15h01.50.074,pmfbcont,2020.1.3,MacIntel,60,,,,,,,,,,,,,,,,,,,,,,,,,,,,,,,,,,,,,,j,1,1.537155,13597,2020-09-29_15h01.50.074,pmfbcont,pmface-cont-black,5,,CFD-BM-024-113-HC-resized.jpg,Pos,purple,0,j,1.537155,space,0.30147,space,0.30147,0,4,4,75,1,,zzzz,,Pos,j,purple,MIRROR.ogg,MIRROR.mp27,76,0,CFD-BM-024-113-HC-resized.jpg,0,0,,HC,11,CFD-BM-024-113-HC-resized.jpg,CFD-BM-041-045-HC-resized.jpg,,,,,,,,,,,,,,,,,,,,,,,,,,,,,,,,,,,,,,,,,,,,,,,
,,,,,,,,,,,,,13597,2020-09-29_15h01.50.074,pmfbcont,2020.1.3,MacIntel,60,,,,,,,,,,,,,,,,,,,,,,,,,,,,,,,,,,,,,,f,1,1.020255,13597,2020-09-29_15h01.50.074,pmfbcont,pmface-cont-black,6,,CFD-BM-021-026-A-resized.jpg,Neg,orange,0,f,1.020255,space,0.20246,space,0.20246,0,5,5,98,1,,zzzz,,Neg,f,orange,MIRROR.ogg,MIRROR.mp50,99,0,CFD-BM-021-026-A-resized.jpg,0,0,,A,8,CFD-BM-021-026-A-resized.jpg,CFD-BM-037-041-A-resized.jpg,,,,,,,,,,,,,,,,,,,,,,,,,,,,,,,,,,,,,,,,,,,,,,,
,,,,,,,,,,,,,13597,2020-09-29_15h01.50.074,pmfbcont,2020.1.3,MacIntel,60,,,,,,,,,,,,,,,,,,,,,,,,,,,,,,,,,,,,,,f,1,1.187925,13597,2020-09-29_15h01.50.074,pmfbcont,pmface-cont-black,7,,CFD-BM-019-045-A-resized.jpg,Neg,green,0,f,1.187925,space,0.203345,space,0.203345,0,6,6,96,1,,zzzz,,Neg,f,green,MIRROR.ogg,MIRROR.mp48,97,0,CFD-BM-019-045-A-resized.jpg,0,0,,A,6,CFD-BM-019-045-A-resized.jpg,CFD-BM-034-040-A-resized.jpg,,,,,,,,,,,,,,,,,,,,,,,,,,,,,,,,,,,,,,,,,,,,,,,
,,,,,,,,,,,,,13597,2020-09-29_15h01.50.074,pmfbcont,2020.1.3,MacIntel,60,,,,,,,,,,,,,,,,,,,,,,,,,,,,,,,,,,,,,,j,1,0.971495,13597,2020-09-29_15h01.50.074,pmfbcont,pmface-cont-black,8,,CFD-BM-025-004-HC-resized.jpg,Pos,green,0,j,0.971495,space,0.283965,space,0.283965,0,7,7,76,1,,zzzz,,Pos,j,green,MIRROR.ogg,MIRROR.mp28,77,0,CFD-BM-025-004-HC-resized.jpg,0,0,,HC,12,CFD-BM-025-004-HC-resized.jpg,CFD-BM-045-057-HC-resized.jpg,,,,,,,,,,,,,,,,,,,,,,,,,,,,,,,,,,,,,,,,,,,,,,,
,,,,,,,,,,,,,13597,2020-09-29_15h01.50.074,pmfbcont,2020.1.3,MacIntel,60,,,,,,,,,,,,,,,,,,,,,,,,,,,,,,,,,,,,,,f,1,1.40382,13597,2020-09-29_15h01.50.074,pmfbcont,pmface-cont-black,9,,CFD-BF-005-022-F-resized.jpg,Neg,green,0,f,1.40382,space,0.16801,space,0.16801,0,8,8,28,1,,foraig,,Neg,f,green,FRONT.ogg,FRONT.mp3,29,0,CFD-BF-005-022-F-resized.jpg,0,0,,F,3,CFD-BF-005-022-F-resized.jpg,CFD-BF-037-043-F-resized.jpg,,,,,,,,,,,,,,,,,,,,,,,,,,,,,,,,,,,,,,,,,,,,,,,
,,,,,,,,,,,,,13597,2020-09-29_15h01.50.074,pmfbcont,2020.1.3,MacIntel,60,,,,,,,,,,,,,,,,,,,,,,,,,,,,,,,,,,,,,,j,1,0.67175,13597,2020-09-29_15h01.50.074,pmfbcont,pmface-cont-black,10,,CFD-BM-018-007-HO-resized.jpg,Pos,green,0,j,0.67175,space,0.2702,space,0.2702,0,9,9,56,1,,zzzz,,Pos,j,green,MIRROR.ogg,MIRROR.mp8,57,0,CFD-BM-018-007-HO-resized.jpg,0,0,,HO,5,CFD-BM-018-007-HO-resized.jpg,CFD-BM-033-029-HO-resized.jpg,,,,,,,,,,,,,,,,,,,,,,,,,,,,,,,,,,,,,,,,,,,,,,,
,,,,,,,,,,,,,13597,2020-09-29_15h01.50.074,pmfbcont,2020.1.3,MacIntel,60,,,,,,,,,,,,,,,,,,,,,,,,,,,,,,,,,,,,,,j,1,1.198735,13597,2020-09-29_15h01.50.074,pmfbcont,pmface-cont-black,11,,CFD-BF-011-005-HC-resized.jpg,Pos,purple,0,j,1.198735,space,0.267845,space,0.267845,0,10,10,19,1,,kife,,Pos,j,purple,FIRST.ogg,FIRST.mp3,20,0,CFD-BF-011-005-HC-resized.jpg,0,0,,HC,7,CFD-BF-011-005-HC-resized.jpg,CFD-BF-031-048-HC-resized.jpg,,,,,,,,,,,,,,,,,,,,,,,,,,,,,,,,,,,,,,,,,,,,,,,
,,,,,,,,,,,,,13597,2020-09-29_15h01.50.074,pmfbcont,2020.1.3,MacIntel,60,,,,,,,,,,,,,,,,,,,,,,,,,,,,,,,,,,,,,,f,1,1.052155,13597,2020-09-29_15h01.50.074,pmfbcont,pmface-cont-black,12,,CFD-BF-050-012-A-resized.jpg,Neg,purple,0,f,1.052155,space,0.14715,space,0.14715,0,11,11,47,1,,lunch,,Neg,f,purple,MEMORY.ogg,MEMORY.mp3,48,0,CFD-BF-050-012-A-resized.jpg,0,0,,A,9,CFD-BF-050-012-A-resized.jpg,CFD-BF-023-013-A-resized.jpg,,,,,,,,,,,,,,,,,,,,,,,,,,,,,,,,,,,,,,,,,,,,,,,
,,,,,,,,,,,,,13597,2020-09-29_15h01.50.074,pmfbcont,2020.1.3,MacIntel,60,,,,,,,,,,,,,,,,,,,,,,,,,,,,,,,,,,,,,,j,1,0.637025,13597,2020-09-29_15h01.50.074,pmfbcont,pmface-cont-black,13,,CFD-BM-002-007-HO-resized.jpg,Pos,green,0,j,0.637025,space,0.29987,space,0.29987,0,12,12,52,1,,zzzz,,Pos,j,green,MIRROR.ogg,MIRROR.mp4,53,0,CFD-BM-002-007-HO-resized.jpg,0,0,,HO,1,CFD-BM-002-007-HO-resized.jpg,CFD-BM-028-028-HO-resized.jpg,,,,,,,,,,,,,,,,,,,,,,,,,,,,,,,,,,,,,,,,,,,,,,,
,,,,,,,,,,,,,13597,2020-09-29_15h01.50.074,pmfbcont,2020.1.3,MacIntel,60,,,,,,,,,,,,,,,,,,,,,,,,,,,,,,,,,,,,,,f,1,0.87102,13597,2020-09-29_15h01.50.074,pmfbcont,pmface-cont-black,14,,CFD-BM-026-041-F-resized.jpg,Neg,orange,0,f,0.87102,space,0.15201,space,0.15201,0,13,13,90,1,,zzzz,,Neg,f,orange,MIRROR.ogg,MIRROR.mp42,91,0,CFD-BM-026-041-F-resized.jpg,0,0,,F,13,CFD-BM-026-041-F-resized.jpg,CFD-BM-046-063-F-resized.jpg,,,,,,,,,,,,,,,,,,,,,,,,,,,,,,,,,,,,,,,,,,,,,,,
,,,,,,,,,,,,,13597,2020-09-29_15h01.50.074,pmfbcont,2020.1.3,MacIntel,60,,,,,,,,,,,,,,,,,,,,,,,,,,,,,,,,,,,,,,f,1,2.637375,13597,2020-09-29_15h01.50.074,pmfbcont,pmface-cont-black,15,,CFD-BM-025-051-F-resized.jpg,Neg,blue,0,f,2.637375,space,0.088515,space,0.088515,0,14,14,89,1,,zzzz,,Neg,f,blue,MIRROR.ogg,MIRROR.mp41,90,0,CFD-BM-025-051-F-resized.jpg,0,0,,F,12,CFD-BM-025-051-F-resized.jpg,CFD-BM-045-045-F-resized.jpg,,,,,,,,,,,,,,,,,,,,,,,,,,,,,,,,,,,,,,,,,,,,,,,
,,,,,,,,,,,,,13597,2020-09-29_15h01.50.074,pmfbcont,2020.1.3,MacIntel,60,,,,,,,,,,,,,,,,,,,,,,,,,,,,,,,,,,,,,,f,1,1.87079,13597,2020-09-29_15h01.50.074,pmfbcont,pmface-cont-black,16,,CFD-BM-021-029-F-resized.jpg,Neg,blue,0,f,1.87079,space,0.118105,space,0.118105,0,15,15,85,1,,zzzz,,Neg,f,blue,MIRROR.ogg,MIRROR.mp37,86,0,CFD-BM-021-029-F-resized.jpg,0,0,,F,8,CFD-BM-021-029-F-resized.jpg,CFD-BM-037-088-F-resized.jpg,,,,,,,,,,,,,,,,,,,,,,,,,,,,,,,,,,,,,,,,,,,,,,,
,,,,,,,,,,,,,13597,2020-09-29_15h01.50.074,pmfbcont,2020.1.3,MacIntel,60,,,,,,,,,,,,,,,,,,,,,,,,,,,,,,,,,,,,,,j,1,0.652225,13597,2020-09-29_15h01.50.074,pmfbcont,pmface-cont-black,17,,CFD-BF-006-006-HO-resized.jpg,Pos,purple,0,j,0.652225,space,0.236635,space,0.236635,0,16,16,3,1,,country,,Pos,j,purple,DANCE.ogg,DANCE.mp3,4,0,CFD-BF-006-006-HO-resized.jpg,0,0,,HO,4,CFD-BF-006-006-HO-resized.jpg,CFD-BF-017-004-HO-resized.jpg,,,,,,,,,,,,,,,,,,,,,,,,,,,,,,,,,,,,,,,,,,,,,,,
,,,,,,,,,,,,,13597,2020-09-29_15h01.50.074,pmfbcont,2020.1.3,MacIntel,60,,,,,,,,,,,,,,,,,,,,,,,,,,,,,,,,,,,,,,j,1,0.651025,13597,2020-09-29_15h01.50.074,pmfbcont,pmface-cont-black,18,,CFD-BF-040-010-HC-resized.jpg,Pos,blue,0,j,0.651025,space,0.25397,space,0.25397,0,17,17,25,1,,gruut,,Pos,j,blue,FREELY.ogg,FREELY.mp3,26,0,CFD-BF-040-010-HC-resized.jpg,0,0,,HC,13,CFD-BF-040-010-HC-resized.jpg,CFD-BF-028-020-HC-resized.jpg,,,,,,,,,,,,,,,,,,,,,,,,,,,,,,,,,,,,,,,,,,,,,,,
,,,,,,,,,,,,,13597,2020-09-29_15h01.50.074,pmfbcont,2020.1.3,MacIntel,60,,,,,,,,,,,,,,,,,,,,,,,,,,,,,,,,,,,,,,f,1,1.10472,13597,2020-09-29_15h01.50.074,pmfbcont,pmface-cont-black,19,,CFD-BM-011-013-F-resized.jpg,Neg,purple,0,f,1.10472,space,0.13458,space,0.13458,0,18,18,79,1,,zzzz,,Neg,f,purple,MIRROR.ogg,MIRROR.mp31,80,0,CFD-BM-011-013-F-resized.jpg,0,0,,F,2,CFD-BM-011-013-F-resized.jpg,CFD-BM-030-065-F-resized.jpg,,,,,,,,,,,,,,,,,,,,,,,,,,,,,,,,,,,,,,,,,,,,,,,
,,,,,,,,,,,,,13597,2020-09-29_15h01.50.074,pmfbcont,2020.1.3,MacIntel,60,,,,,,,,,,,,,,,,,,,,,,,,,,,,,,,,,,,,,,j,1,1.53588,13597,2020-09-29_15h01.50.074,pmfbcont,pmface-cont-black,20,,CFD-BM-015-017-HC-resized.jpg,Pos,green,0,j,1.53588,space,0.222065,space,0.222065,0,19,19,68,1,,zzzz,,Pos,j,green,MIRROR.ogg,MIRROR.mp20,69,0,CFD-BM-015-017-HC-resized.jpg,0,0,,HC,4,CFD-BM-015-017-HC-resized.jpg,CFD-BM-032-010-HC-resized.jpg,,,,,,,,,,,,,,,,,,,,,,,,,,,,,,,,,,,,,,,,,,,,,,,
,,,,,,,,,,,,,13597,2020-09-29_15h01.50.074,pmfbcont,2020.1.3,MacIntel,60,,,,,,,,,,,,,,,,,,,,,,,,,,,,,,,,,,,,,,j,1,0.65244,13597,2020-09-29_15h01.50.074,pmfbcont,pmface-cont-black,21,,CFD-BM-013-004-HO-resized.jpg,Pos,orange,0,j,0.65244,space,0.253015,space,0.253015,0,20,20,54,1,,zzzz,,Pos,j,orange,MIRROR.ogg,MIRROR.mp6,55,0,CFD-BM-013-004-HO-resized.jpg,0,0,,HO,3,CFD-BM-013-004-HO-resized.jpg,CFD-BM-031-004-HO-resized.jpg,,,,,,,,,,,,,,,,,,,,,,,,,,,,,,,,,,,,,,,,,,,,,,,
,,,,,,,,,,,,,13597,2020-09-29_15h01.50.074,pmfbcont,2020.1.3,MacIntel,60,,,,,,,,,,,,,,,,,,,,,,,,,,,,,,,,,,,,,,f,1,0.98782,13597,2020-09-29_15h01.50.074,pmfbcont,pmface-cont-black,22,,CFD-BF-006-012-A-resized.jpg,Neg,orange,0,f,0.98782,space,0.11928,space,0.11928,0,21,21,42,1,,sloofy,,Neg,f,orange,MATCH.ogg,MATCH.mp3,43,0,CFD-BF-006-012-A-resized.jpg,0,0,,A,4,CFD-BF-006-012-A-resized.jpg,CFD-BF-017-011-A-resized.jpg,,,,,,,,,,,,,,,,,,,,,,,,,,,,,,,,,,,,,,,,,,,,,,,
,,,,,,,,,,,,,13597,2020-09-29_15h01.50.074,pmfbcont,2020.1.3,MacIntel,60,,,,,,,,,,,,,,,,,,,,,,,,,,,,,,,,,,,,,,j,1,1.619775,13597,2020-09-29_15h01.50.074,pmfbcont,pmface-cont-black,23,,CFD-BM-018-004-HC-resized.jpg,Pos,blue,0,j,1.619775,space,0.222795,space,0.222795,0,22,22,69,1,,zzzz,,Pos,j,blue,MIRROR.ogg,MIRROR.mp21,70,0,CFD-BM-018-004-HC-resized.jpg,0,0,,HC,5,CFD-BM-018-004-HC-resized.jpg,CFD-BM-033-026-HC-resized.jpg,,,,,,,,,,,,,,,,,,,,,,,,,,,,,,,,,,,,,,,,,,,,,,,
,,,,,,,,,,,,,13597,2020-09-29_15h01.50.074,pmfbcont,2020.1.3,MacIntel,60,,,,,,,,,,,,,,,,,,,,,,,,,,,,,,,,,,,,,,f,1,1.58635,13597,2020-09-29_15h01.50.074,pmfbcont,pmface-cont-black,24,,CFD-BF-050-036-F-resized.jpg,Neg,orange,0,f,1.58635,space,0.13401,space,0.13401,0,23,23,34,1,,boulder,,Neg,f,orange,GLOVE.ogg,GLOVE.mp3,35,0,CFD-BF-050-036-F-resized.jpg,0,0,,F,9,CFD-BF-050-036-F-resized.jpg,CFD-BF-023-014-F-resized.jpg,,,,,,,,,,,,,,,,,,,,,,,,,,,,,,,,,,,,,,,,,,,,,,,
,,,,,,,,,,,,,13597,2020-09-29_15h01.50.074,pmfbcont,2020.1.3,MacIntel,60,,,,,,,,,,,,,,,,,,,,,,,,,,,,,,,,,,,,,,f,1,0.93949,13597,2020-09-29_15h01.50.074,pmfbcont,pmface-cont-black,25,,CFD-BF-002-018-A-resized.jpg,Neg,purple,0,f,0.93949,space,0.134185,space,0.134185,0,24,24,39,1,,battery,,Neg,f,purple,GROUP.ogg,GROUP.mp3,40,0,CFD-BF-002-018-A-resized.jpg,0,0,,A,1,CFD-BF-002-018-A-resized.jpg,CFD-BF-014-013-A-resized.jpg,,,,,,,,,,,,,,,,,,,,,,,,,,,,,,,,,,,,,,,,,,,,,,,
,,,,,,,,,,,,,13597,2020-09-29_15h01.50.074,pmfbcont,2020.1.3,MacIntel,60,,,,,,,,,,,,,,,,,,,,,,,,,,,,,,,,,,,,,,f,1,1.233235,13597,2020-09-29_15h01.50.074,pmfbcont,pmface-cont-black,26,,CFD-BM-015-014-F-resized.jpg,Neg,blue,0,f,1.233235,space,0.05217,space,0.05217,0,25,25,81,1,,zzzz,,Neg,f,blue,MIRROR.ogg,MIRROR.mp33,82,0,CFD-BM-015-014-F-resized.jpg,0,0,,F,4,CFD-BM-015-014-F-resized.jpg,CFD-BM-032-039-F-resized.jpg,,,,,,,,,,,,,,,,,,,,,,,,,,,,,,,,,,,,,,,,,,,,,,,
,,,,,,,,,,,,,13597,2020-09-29_15h01.50.074,pmfbcont,2020.1.3,MacIntel,60,,,,,,,,,,,,,,,,,,,,,,,,,,,,,,,,,,,,,,f,1,0.916785,13597,2020-09-29_15h01.50.074,pmfbcont,pmface-cont-black,27,,CFD-BM-018-012-A-resized.jpg,Neg,purple,0,f,0.916785,space,0.13652,space,0.13652,0,26,26,95,1,,zzzz,,Neg,f,purple,MIRROR.ogg,MIRROR.mp47,96,0,CFD-BM-018-012-A-resized.jpg,0,0,,A,5,CFD-BM-018-012-A-resized.jpg,CFD-BM-033-032-A-resized.jpg,,,,,,,,,,,,,,,,,,,,,,,,,,,,,,,,,,,,,,,,,,,,,,,
,,,,,,,,,,,,,13597,2020-09-29_15h01.50.074,pmfbcont,2020.1.3,MacIntel,60,,,,,,,,,,,,,,,,,,,,,,,,,,,,,,,,,,,,,,j,1,0.952865,13597,2020-09-29_15h01.50.074,pmfbcont,pmface-cont-black,28,,CFD-BF-005-005-HO-resized.jpg,Pos,orange,0,j,0.952865,space,0.004005,space,0.004005,0,27,27,2,1,,enganen,,Pos,j,orange,COVER.ogg,COVER.mp3,3,0,CFD-BF-005-005-HO-resized.jpg,0,0,,HO,3,CFD-BF-005-005-HO-resized.jpg,CFD-BF-037-026-HO-resized.jpg,,,,,,,,,,,,,,,,,,,,,,,,,,,,,,,,,,,,,,,,,,,,,,,
,,,,,,,,,,,,,13597,2020-09-29_15h01.50.074,pmfbcont,2020.1.3,MacIntel,60,,,,,,,,,,,,,,,,,,,,,,,,,,,,,,,,,,,,,,j,1,0.94928,13597,2020-09-29_15h01.50.074,pmfbcont,pmface-cont-black,29,,CFD-BF-045-062-HO-resized.jpg,Pos,orange,0,j,0.94928,space,0.236335,space,0.236335,0,28,28,10,1,,bejieze,,Pos,j,orange,DOZEN.ogg,DOZEN.mp3,11,0,CFD-BF-045-062-HO-resized.jpg,0,0,,HO,11,CFD-BF-045-062-HO-resized.jpg,CFD-BF-025-005-HO-resized.jpg,,,,,,,,,,,,,,,,,,,,,,,,,,,,,,,,,,,,,,,,,,,,,,,
,,,,,,,,,,,,,13597,2020-09-29_15h01.50.074,pmfbcont,2020.1.3,MacIntel,60,,,,,,,,,,,,,,,,,,,,,,,,,,,,,,,,,,,,,,f,1,1.0224,13597,2020-09-29_15h01.50.074,pmfbcont,pmface-cont-black,30,,CFD-BM-013-016-A-resized.jpg,Neg,blue,0,f,1.0224,space,0.184785,space,0.184785,0,29,29,93,1,,zzzz,,Neg,f,blue,MIRROR.ogg,MIRROR.mp45,94,0,CFD-BM-013-016-A-resized.jpg,0,0,,A,3,CFD-BM-013-016-A-resized.jpg,CFD-BM-031-030-A-resized.jpg,,,,,,,,,,,,,,,,,,,,,,,,,,,,,,,,,,,,,,,,,,,,,,,
,,,,,,,,,,,,,13597,2020-09-29_15h01.50.074,pmfbcont,2020.1.3,MacIntel,60,,,,,,,,,,,,,,,,,,,,,,,,,,,,,,,,,,,,,,f,1,0.68806,13597,2020-09-29_15h01.50.074,pmfbcont,pmface-cont-black,31,,CFD-BM-011-020-A-resized.jpg,Neg,green,0,f,0.68806,space,0.131415,space,0.131415,0,30,30,92,1,,zzzz,,Neg,f,green,MIRROR.ogg,MIRROR.mp44,93,0,CFD-BM-011-020-A-resized.jpg,0,0,,A,2,CFD-BM-011-020-A-resized.jpg,CFD-BM-030-041-A-resized.jpg,,,,,,,,,,,,,,,,,,,,,,,,,,,,,,,,,,,,,,,,,,,,,,,
,,,,,,,,,,,,,13597,2020-09-29_15h01.50.074,pmfbcont,2020.1.3,MacIntel,60,,,,,,,,,,,,,,,,,,,,,,,,,,,,,,,,,,,,,,j,1,0.809325,13597,2020-09-29_15h01.50.074,pmfbcont,pmface-cont-black,32,,CFD-BM-002-011-HC-resized.jpg,Pos,blue,0,j,0.809325,space,0.23364,space,0.23364,0,31,31,65,1,,zzzz,,Pos,j,blue,MIRROR.ogg,MIRROR.mp17,66,0,CFD-BM-002-011-HC-resized.jpg,0,0,,HC,1,CFD-BM-002-011-HC-resized.jpg,CFD-BM-028-031-HC-resized.jpg,,,,,,,,,,,,,,,,,,,,,,,,,,,,,,,,,,,,,,,,,,,,,,,
,,,,,,,,,,,,,13597,2020-09-29_15h01.50.074,pmfbcont,2020.1.3,MacIntel,60,,,,,,,,,,,,,,,,,,,,,,,,,,,,,,,,,,,,,,f,1,1.07013,13597,2020-09-29_15h01.50.074,pmfbcont,pmface-cont-black,33,,CFD-BF-008-018-F-resized.jpg,Neg,orange,0,f,1.07013,space,0.152325,space,0.152325,0,32,32,30,1,,genber,,Neg,f,orange,FUTURE.ogg,FUTURE.mp3,31,0,CFD-BF-008-018-F-resized.jpg,0,0,,F,5,CFD-BF-008-018-F-resized.jpg,CFD-BF-018-044-F-resized.jpg,,,,,,,,,,,,,,,,,,,,,,,,,,,,,,,,,,,,,,,,,,,,,,,
,,,,,,,,,,,,,13597,2020-09-29_15h01.50.074,pmfbcont,2020.1.3,MacIntel,60,,,,,,,,,,,,,,,,,,,,,,,,,,,,,,,,,,,,,,j,1,0.768755,13597,2020-09-29_15h01.50.074,pmfbcont,pmface-cont-black,34,,CFD-BF-011-004-HO-resized.jpg,Pos,orange,0,j,0.768755,space,0.270155,space,0.270155,0,33,33,6,1,,jiend,,Pos,j,orange,DINNER.ogg,DINNER.mp3,7,0,CFD-BF-011-004-HO-resized.jpg,0,0,,HO,7,CFD-BF-011-004-HO-resized.jpg,CFD-BF-031-051-HO-resized.jpg,,,,,,,,,,,,,,,,,,,,,,,,,,,,,,,,,,,,,,,,,,,,,,,
,,,,,,,,,,,,,13597,2020-09-29_15h01.50.074,pmfbcont,2020.1.3,MacIntel,60,,,,,,,,,,,,,,,,,,,,,,,,,,,,,,,,,,,,,,f,1,2.217795,13597,2020-09-29_15h01.50.074,pmfbcont,pmface-cont-black,35,,CFD-BM-024-104-F-resized.jpg,Neg,green,0,f,2.217795,space,0.134145,space,0.134145,0,34,34,88,1,,zzzz,,Neg,f,green,MIRROR.ogg,MIRROR.mp40,89,0,CFD-BM-024-104-F-resized.jpg,0,0,,F,11,CFD-BM-024-104-F-resized.jpg,CFD-BM-041-030-F-resized.jpg,,,,,,,,,,,,,,,,,,,,,,,,,,,,,,,,,,,,,,,,,,,,,,,
,,,,,,,,,,,,,13597,2020-09-29_15h01.50.074,pmfbcont,2020.1.3,MacIntel,60,,,,,,,,,,,,,,,,,,,,,,,,,,,,,,,,,,,,,,j,1,0.573515,13597,2020-09-29_15h01.50.074,pmfbcont,pmface-cont-black,36,,CFD-BF-006-008-HC-resized.jpg,Pos,green,0,j,0.573515,space,0.230765,space,0.230765,0,35,35,16,1,,toaster,,Pos,j,green,FAMOUS.ogg,FAMOUS.mp3,17,0,CFD-BF-006-008-HC-resized.jpg,0,0,,HC,4,CFD-BF-006-008-HC-resized.jpg,CFD-BF-017-007-HC-resized.jpg,,,,,,,,,,,,,,,,,,,,,,,,,,,,,,,,,,,,,,,,,,,,,,,
,,,,,,,,,,,,,13597,2020-09-29_15h01.50.074,pmfbcont,2020.1.3,MacIntel,60,,,,,,,,,,,,,,,,,,,,,,,,,,,,,,,,,,,,,,f,1,1.27474,13597,2020-09-29_15h01.50.074,pmfbcont,pmface-cont-black,37,,CFD-BF-045-051-F-resized.jpg,Neg,green,0,f,1.27474,space,0.102385,space,0.102385,0,36,36,36,1,,door,,Neg,f,green,GLOBE.ogg,GLOBE.mp3,37,0,CFD-BF-045-051-F-resized.jpg,0,0,,F,11,CFD-BF-045-051-F-resized.jpg,CFD-BF-025-020-F-resized.jpg,,,,,,,,,,,,,,,,,,,,,,,,,,,,,,,,,,,,,,,,,,,,,,,
,,,,,,,,,,,,,13597,2020-09-29_15h01.50.074,pmfbcont,2020.1.3,MacIntel,60,,,,,,,,,,,,,,,,,,,,,,,,,,,,,,,,,,,,,,j,1,0.585355,13597,2020-09-29_15h01.50.074,pmfbcont,pmface-cont-black,38,,CFD-BM-011-017-HO-resized.jpg,Pos,blue,0,j,0.585355,space,0.202895,space,0.202895,0,37,37,53,1,,zzzz,,Pos,j,blue,MIRROR.ogg,MIRROR.mp5,54,0,CFD-BM-011-017-HO-resized.jpg,0,0,,HO,2,CFD-BM-011-017-HO-resized.jpg,CFD-BM-030-004-HO-resized.jpg,,,,,,,,,,,,,,,,,,,,,,,,,,,,,,,,,,,,,,,,,,,,,,,
,,,,,,,,,,,,,13597,2020-09-29_15h01.50.074,pmfbcont,2020.1.3,MacIntel,60,,,,,,,,,,,,,,,,,,,,,,,,,,,,,,,,,,,,,,f,1,0.896385,13597,2020-09-29_15h01.50.074,pmfbcont,pmface-cont-black,39,,CFD-BF-010-015-F-resized.jpg,Neg,purple,0,f,0.896385,space,0.120015,space,0.120015,0,38,38,31,1,,museum,,Neg,f,purple,GARDEN.ogg,GARDEN.mp3,32,0,CFD-BF-010-015-F-resized.jpg,0,0,,F,6,CFD-BF-010-015-F-resized.jpg,CFD-BF-036-046-F-resized.jpg,,,,,,,,,,,,,,,,,,,,,,,,,,,,,,,,,,,,,,,,,,,,,,,
,,,,,,,,,,,,,13597,2020-09-29_15h01.50.074,pmfbcont,2020.1.3,MacIntel,60,,,,,,,,,,,,,,,,,,,,,,,,,,,,,,,,,,,,,,j,1,0.76371,13597,2020-09-29_15h01.50.074,pmfbcont,pmface-cont-black,40,,CFD-BF-002-006-HC-resized.jpg,Pos,blue,0,j,0.76371,space,0.202075,space,0.202075,0,39,39,13,1,,cotifu,,Pos,j,blue,DRINK.ogg,DRINK.mp3,14,0,CFD-BF-002-006-HC-resized.jpg,0,0,,HC,1,CFD-BF-002-006-HC-resized.jpg,CFD-BF-014-005-HC-resized.jpg,,,,,,,,,,,,,,,,,,,,,,,,,,,,,,,,,,,,,,,,,,,,,,,
,,,,,,,,,,,,,13597,2020-09-29_15h01.50.074,pmfbcont,2020.1.3,MacIntel,60,,,,,,,,,,,,,,,,,,,,,,,,,,,,,,,,,,,,,,j,1,0.764295,13597,2020-09-29_15h01.50.074,pmfbcont,pmface-cont-black,41,,CFD-BM-013-014-HC-resized.jpg,Pos,purple,0,j,0.764295,space,0.255555,space,0.255555,0,40,40,67,1,,zzzz,,Pos,j,purple,MIRROR.ogg,MIRROR.mp19,68,0,CFD-BM-013-014-HC-resized.jpg,0,0,,HC,3,CFD-BM-013-014-HC-resized.jpg,CFD-BM-031-009-HC-resized.jpg,,,,,,,,,,,,,,,,,,,,,,,,,,,,,,,,,,,,,,,,,,,,,,,
,,,,,,,,,,,,,13597,2020-09-29_15h01.50.074,pmfbcont,2020.1.3,MacIntel,60,,,,,,,,,,,,,,,,,,,,,,,,,,,,,,,,,,,,,,j,1,0.939475,13597,2020-09-29_15h01.50.074,pmfbcont,pmface-cont-black,42,,CFD-BF-050-008-HC-resized.jpg,Pos,blue,0,j,0.939475,space,0.234445,space,0.234445,0,41,41,21,1,,rehad,,Pos,j,blue,FLAME.ogg,FLAME.mp3,22,0,CFD-BF-050-008-HC-resized.jpg,0,0,,HC,9,CFD-BF-050-008-HC-resized.jpg,CFD-BF-023-012-HC-resized.jpg,,,,,,,,,,,,,,,,,,,,,,,,,,,,,,,,,,,,,,,,,,,,,,,
,,,,,,,,,,,,,13597,2020-09-29_15h01.50.074,pmfbcont,2020.1.3,MacIntel,60,,,,,,,,,,,,,,,,,,,,,,,,,,,,,,,,,,,,,,j,1,0.57403,13597,2020-09-29_15h01.50.074,pmfbcont,pmface-cont-black,43,,CFD-BM-011-019-HC-resized.jpg,Pos,orange,0,j,0.57403,space,0.23562,space,0.23562,0,42,42,66,1,,zzzz,,Pos,j,orange,MIRROR.ogg,MIRROR.mp18,67,0,CFD-BM-011-019-HC-resized.jpg,0,0,,HC,2,CFD-BM-011-019-HC-resized.jpg,CFD-BM-030-008-HC-resized.jpg,,,,,,,,,,,,,,,,,,,,,,,,,,,,,,,,,,,,,,,,,,,,,,,
,,,,,,,,,,,,,13597,2020-09-29_15h01.50.074,pmfbcont,2020.1.3,MacIntel,60,,,,,,,,,,,,,,,,,,,,,,,,,,,,,,,,,,,,,,f,1,0.81467,13597,2020-09-29_15h01.50.074,pmfbcont,pmface-cont-black,44,,CFD-BM-023-011-A-resized.jpg,Neg,green,0,f,0.81467,space,0.13066,space,0.13066,0,43,43,100,1,,zzzz,,Neg,f,green,MIRROR.ogg,MIRROR.mp52,101,0,CFD-BM-023-011-A-resized.jpg,0,0,,A,10,CFD-BM-023-011-A-resized.jpg,CFD-BM-039-037-A-resized.jpg,,,,,,,,,,,,,,,,,,,,,,,,,,,,,,,,,,,,,,,,,,,,,,,
,,,,,,,,,,,,,13597,2020-09-29_15h01.50.074,pmfbcont,2020.1.3,MacIntel,60,,,,,,,,,,,,,,,,,,,,,,,,,,,,,,,,,,,,,,j,1,0.673995,13597,2020-09-29_15h01.50.074,pmfbcont,pmface-cont-black,45,,CFD-BM-021-009-HC-resized.jpg,Pos,green,0,j,0.673995,space,0.23452,space,0.23452,0,44,44,72,1,,zzzz,,Pos,j,green,MIRROR.ogg,MIRROR.mp24,73,0,CFD-BM-021-009-HC-resized.jpg,0,0,,HC,8,CFD-BM-021-009-HC-resized.jpg,CFD-BM-037-038-HC-resized.jpg,,,,,,,,,,,,,,,,,,,,,,,,,,,,,,,,,,,,,,,,,,,,,,,
,,,,,,,,,,,,,13597,2020-09-29_15h01.50.074,pmfbcont,2020.1.3,MacIntel,60,,,,,,,,,,,,,,,,,,,,,,,,,,,,,,,,,,,,,,j,1,0.60265,13597,2020-09-29_15h01.50.074,pmfbcont,pmface-cont-black,46,,CFD-BM-019-008-HC-resized.jpg,Pos,orange,0,j,0.60265,space,0.23841,space,0.23841,0,45,45,70,1,,zzzz,,Pos,j,orange,MIRROR.ogg,MIRROR.mp22,71,0,CFD-BM-019-008-HC-resized.jpg,0,0,,HC,6,CFD-BM-019-008-HC-resized.jpg,CFD-BM-034-035-HC-resized.jpg,,,,,,,,,,,,,,,,,,,,,,,,,,,,,,,,,,,,,,,,,,,,,,,
,,,,,,,,,,,,,13597,2020-09-29_15h01.50.074,pmfbcont,2020.1.3,MacIntel,60,,,,,,,,,,,,,,,,,,,,,,,,,,,,,,,,,,,,,,j,1,0.571525,13597,2020-09-29_15h01.50.074,pmfbcont,pmface-cont-black,47,,CFD-BF-008-007-HC-resized.jpg,Pos,blue,0,j,0.571525,space,0.235515,space,0.235515,0,46,46,17,1,,candy,,Pos,j,blue,FINAL.ogg,FINAL.mp3,18,0,CFD-BF-008-007-HC-resized.jpg,0,0,,HC,5,CFD-BF-008-007-HC-resized.jpg,CFD-BF-018-041-HC-resized.jpg,,,,,,,,,,,,,,,,,,,,,,,,,,,,,,,,,,,,,,,,,,,,,,,
,,,,,,,,,,,,,13597,2020-09-29_15h01.50.074,pmfbcont,2020.1.3,MacIntel,60,,,,,,,,,,,,,,,,,,,,,,,,,,,,,,,,,,,,,,f,1,0.780955,13597,2020-09-29_15h01.50.074,pmfbcont,pmface-cont-black,48,,CFD-BM-024-018-A-resized.jpg,Neg,blue,0,f,0.780955,space,0.11667,space,0.11667,0,47,47,101,1,,zzzz,,Neg,f,blue,MIRROR.ogg,MIRROR.mp53,102,0,CFD-BM-024-018-A-resized.jpg,0,0,,A,11,CFD-BM-024-018-A-resized.jpg,CFD-BM-041-048-A-resized.jpg,,,,,,,,,,,,,,,,,,,,,,,,,,,,,,,,,,,,,,,,,,,,,,,
,,,,,,,,,,,,,13597,2020-09-29_15h01.50.074,pmfbcont,2020.1.3,MacIntel,60,,,,,,,,,,,,,,,,,,,,,,,,,,,,,,,,,,,,,,f,1,0.93293,13597,2020-09-29_15h01.50.074,pmfbcont,pmface-cont-black,49,,CFD-BF-049-039-A-resized.jpg,Neg,green,0,f,0.93293,space,0.118415,space,0.118415,0,48,48,48,1,,clip,,Neg,f,green,MIMIC.ogg,MIMIC.mp3,49,0,CFD-BF-049-039-A-resized.jpg,0,0,,A,10,CFD-BF-049-039-A-resized.jpg,CFD-BF-024-024-A-resized.jpg,,,,,,,,,,,,,,,,,,,,,,,,,,,,,,,,,,,,,,,,,,,,,,,
,,,,,,,,,,,,,13597,2020-09-29_15h01.50.074,pmfbcont,2020.1.3,MacIntel,60,,,,,,,,,,,,,,,,,,,,,,,,,,,,,,,,,,,,,,j,1,0.72098,13597,2020-09-29_15h01.50.074,pmfbcont,pmface-cont-black,50,,CFD-BF-045-064-HC-resized.jpg,Pos,purple,0,j,0.72098,space,0.22223,space,0.22223,0,49,49,23,1,,seed,,Pos,j,purple,FLOOR.ogg,FLOOR.mp3,24,0,CFD-BF-045-064-HC-resized.jpg,0,0,,HC,11,CFD-BF-045-064-HC-resized.jpg,CFD-BF-025-018-HC-resized.jpg,,,,,,,,,,,,,,,,,,,,,,,,,,,,,,,,,,,,,,,,,,,,,,,
,,,,,,,,,,,,,13597,2020-09-29_15h01.50.074,pmfbcont,2020.1.3,MacIntel,60,,,,,,,,,,,,,,,,,,,,,,,,,,,,,,,,,,,,,,j,1,0.61665,13597,2020-09-29_15h01.50.074,pmfbcont,pmface-cont-black,51,,CFD-BF-002-004-HO-resized.jpg,Pos,green,0,j,0.61665,space,0.2509,space,0.2509,0,50,50,0,1,,wouble,,Pos,j,green,COUNT.ogg,COUNT.mp3,1,0,CFD-BF-002-004-HO-resized.jpg,0,0,,HO,1,CFD-BF-002-004-HO-resized.jpg,CFD-BF-014-004-HO-resized.jpg,,,,,,,,,,,,,,,,,,,,,,,,,,,,,,,,,,,,,,,,,,,,,,,
,,,,,,,,,,,,,13597,2020-09-29_15h01.50.074,pmfbcont,2020.1.3,MacIntel,60,,,,,,,,,,,,,,,,,,,,,,,,,,,,,,,,,,,,,,f,1,0.994905,13597,2020-09-29_15h01.50.074,pmfbcont,pmface-cont-black,52,,CFD-BM-022-014-F-resized.jpg,Neg,orange,0,f,0.994905,space,0.115455,space,0.115455,0,51,51,86,1,,zzzz,,Neg,f,orange,MIRROR.ogg,MIRROR.mp38,87,0,CFD-BM-022-014-F-resized.jpg,0,0,,F,9,CFD-BM-022-014-F-resized.jpg,CFD-BM-038-017-F-resized.jpg,,,,,,,,,,,,,,,,,,,,,,,,,,,,,,,,,,,,,,,,,,,,,,,
,,,,,,,,,,,,,13597,2020-09-29_15h01.50.074,pmfbcont,2020.1.3,MacIntel,60,,,,,,,,,,,,,,,,,,,,,,,,,,,,,,,,,,,,,,j,1,0.705505,13597,2020-09-29_15h01.50.074,pmfbcont,pmface-cont-black,53,,CFD-BF-040-043-HO-resized.jpg,Pos,green,0,j,0.705505,space,0.23533,space,0.23533,0,52,52,12,1,,mrong,,Pos,j,green,DRESS.ogg,DRESS.mp3,13,0,CFD-BF-040-043-HO-resized.jpg,0,0,,HO,13,CFD-BF-040-043-HO-resized.jpg,CFD-BF-028-006-HO-resized.jpg,,,,,,,,,,,,,,,,,,,,,,,,,,,,,,,,,,,,,,,,,,,,,,,
,,,,,,,,,,,,,13597,2020-09-29_15h01.50.074,pmfbcont,2020.1.3,MacIntel,60,,,,,,,,,,,,,,,,,,,,,,,,,,,,,,,,,,,,,,j,1,0.90335,13597,2020-09-29_15h01.50.074,pmfbcont,pmface-cont-black,54,,CFD-BM-023-006-HO-resized.jpg,Pos,blue,0,j,0.90335,space,0.18663,space,0.18663,0,53,53,61,1,,zzzz,,Pos,j,blue,MIRROR.ogg,MIRROR.mp13,62,0,CFD-BM-023-006-HO-resized.jpg,0,0,,HO,10,CFD-BM-023-006-HO-resized.jpg,CFD-BM-039-034-HO-resized.jpg,,,,,,,,,,,,,,,,,,,,,,,,,,,,,,,,,,,,,,,,,,,,,,,
,,,,,,,,,,,,,13597,2020-09-29_15h01.50.074,pmfbcont,2020.1.3,MacIntel,60,,,,,,,,,,,,,,,,,,,,,,,,,,,,,,,,,,,,,,f,1,1.625605,13597,2020-09-29_15h01.50.074,pmfbcont,pmface-cont-black,55,,CFD-BM-019-049-F-resized.jpg,Neg,purple,0,f,1.625605,space,0.101695,space,0.101695,0,54,54,83,1,,zzzz,,Neg,f,purple,MIRROR.ogg,MIRROR.mp35,84,0,CFD-BM-019-049-F-resized.jpg,0,0,,F,6,CFD-BM-019-049-F-resized.jpg,CFD-BM-034-025-F-resized.jpg,,,,,,,,,,,,,,,,,,,,,,,,,,,,,,,,,,,,,,,,,,,,,,,
,,,,,,,,,,,,,13597,2020-09-29_15h01.50.074,pmfbcont,2020.1.3,MacIntel,60,,,,,,,,,,,,,,,,,,,,,,,,,,,,,,,,,,,,,,j,1,0.575295,13597,2020-09-29_15h01.50.074,pmfbcont,pmface-cont-black,56,,CFD-BM-025-040-HO-resized.jpg,Pos,purple,0,j,0.575295,space,0.1681,space,0.1681,0,55,55,63,1,,zzzz,,Pos,j,purple,MIRROR.ogg,MIRROR.mp15,64,0,CFD-BM-025-040-HO-resized.jpg,0,0,,HO,12,CFD-BM-025-040-HO-resized.jpg,CFD-BM-045-055-HO-resized.jpg,,,,,,,,,,,,,,,,,,,,,,,,,,,,,,,,,,,,,,,,,,,,,,,
,,,,,,,,,,,,,13597,2020-09-29_15h01.50.074,pmfbcont,2020.1.3,MacIntel,60,,,,,,,,,,,,,,,,,,,,,,,,,,,,,,,,,,,,,,f,1,1.15772,13597,2020-09-29_15h01.50.074,pmfbcont,pmface-cont-black,57,,CFD-BM-025-045-A-resized.jpg,Neg,orange,0,f,1.15772,space,0.116375,space,0.116375,0,56,56,102,1,,zzzz,,Neg,f,orange,MIRROR.ogg,MIRROR.mp54,103,0,CFD-BM-025-045-A-resized.jpg,0,0,,A,12,CFD-BM-025-045-A-resized.jpg,CFD-BM-045-061-A-resized.jpg,,,,,,,,,,,,,,,,,,,,,,,,,,,,,,,,,,,,,,,,,,,,,,,
,,,,,,,,,,,,,13597,2020-09-29_15h01.50.074,pmfbcont,2020.1.3,MacIntel,60,,,,,,,,,,,,,,,,,,,,,,,,,,,,,,,,,,,,,,j,1,1.04143,13597,2020-09-29_15h01.50.074,pmfbcont,pmface-cont-black,58,,CFD-BM-020-024-HC-resized.jpg,Pos,purple,0,j,1.04143,space,0.232085,space,0.232085,0,57,57,71,1,,zzzz,,Pos,j,purple,MIRROR.ogg,MIRROR.mp23,72,0,CFD-BM-020-024-HC-resized.jpg,0,0,,HC,7,CFD-BM-020-024-HC-resized.jpg,CFD-BM-036-007-HC-resized.jpg,,,,,,,,,,,,,,,,,,,,,,,,,,,,,,,,,,,,,,,,,,,,,,,
,,,,,,,,,,,,,13597,2020-09-29_15h01.50.074,pmfbcont,2020.1.3,MacIntel,60,,,,,,,,,,,,,,,,,,,,,,,,,,,,,,,,,,,,,,f,1,0.8808,13597,2020-09-29_15h01.50.074,pmfbcont,pmface-cont-black,59,,CFD-BM-002-016-A-resized.jpg,Neg,purple,0,f,0.8808,space,0.16851,space,0.16851,0,58,58,91,1,,zzzz,,Neg,f,purple,MIRROR.ogg,MIRROR.mp43,92,0,CFD-BM-002-016-A-resized.jpg,0,0,,A,1,CFD-BM-002-016-A-resized.jpg,CFD-BM-028-012-A-resized.jpg,,,,,,,,,,,,,,,,,,,,,,,,,,,,,,,,,,,,,,,,,,,,,,,
,,,,,,,,,,,,,13597,2020-09-29_15h01.50.074,pmfbcont,2020.1.3,MacIntel,60,,,,,,,,,,,,,,,,,,,,,,,,,,,,,,,,,,,,,,j,1,1.05485,13597,2020-09-29_15h01.50.074,pmfbcont,pmface-cont-black,60,,CFD-BF-010-005-HC-resized.jpg,Pos,orange,0,j,1.05485,space,0.165125,space,0.165125,0,59,59,18,1,,fakily,,Pos,j,orange,FAVOR.ogg,FAVOR.mp3,19,0,CFD-BF-010-005-HC-resized.jpg,0,0,,HC,6,CFD-BF-010-005-HC-resized.jpg,CFD-BF-036-032-HC-resized.jpg,,,,,,,,,,,,,,,,,,,,,,,,,,,,,,,,,,,,,,,,,,,,,,,
,,,,,,,,,,,,,13597,2020-09-29_15h01.50.074,pmfbcont,2020.1.3,MacIntel,60,,,,,,,,,,,,,,,,,,,,,,,,,,,,,,,,,,,,,,f,1,1.99068,13597,2020-09-29_15h01.50.074,pmfbcont,pmface-cont-black,61,,CFD-BM-026-017-A-resized.jpg,Neg,green,0,f,1.99068,space,0.081095,space,0.081095,0,60,60,103,1,,zzzz,,Neg,f,green,MIRROR.ogg,MIRROR.mp55,104,0,CFD-BM-026-017-A-resized.jpg,0,0,,A,13,CFD-BM-026-017-A-resized.jpg,CFD-BM-046-048-A-resized.jpg,,,,,,,,,,,,,,,,,,,,,,,,,,,,,,,,,,,,,,,,,,,,,,,
,,,,,,,,,,,,,13597,2020-09-29_15h01.50.074,pmfbcont,2020.1.3,MacIntel,60,,,,,,,,,,,,,,,,,,,,,,,,,,,,,,,,,,,,,,f,1,1.16878,13597,2020-09-29_15h01.50.074,pmfbcont,pmface-cont-black,62,,CFD-BM-020-037-A-resized.jpg,Neg,blue,0,f,1.16878,space,0.068625,space,0.068625,0,61,61,97,1,,zzzz,,Neg,f,blue,MIRROR.ogg,MIRROR.mp49,98,0,CFD-BM-020-037-A-resized.jpg,0,0,,A,7,CFD-BM-020-037-A-resized.jpg,CFD-BM-036-037-A-resized.jpg,,,,,,,,,,,,,,,,,,,,,,,,,,,,,,,,,,,,,,,,,,,,,,,
,,,,,,,,,,,,,13597,2020-09-29_15h01.50.074,pmfbcont,2020.1.3,MacIntel,60,,,,,,,,,,,,,,,,,,,,,,,,,,,,,,,,,,,,,,j,1,0.902985,13597,2020-09-29_15h01.50.074,pmfbcont,pmface-cont-black,63,,CFD-BM-022-004-HC-resized.jpg,Pos,blue,0,j,0.902985,space,0.20239,space,0.20239,0,62,62,73,1,,zzzz,,Pos,j,blue,MIRROR.ogg,MIRROR.mp25,74,0,CFD-BM-022-004-HC-resized.jpg,0,0,,HC,9,CFD-BM-022-004-HC-resized.jpg,CFD-BM-038-004-HC-resized.jpg,,,,,,,,,,,,,,,,,,,,,,,,,,,,,,,,,,,,,,,,,,,,,,,
,,,,,,,,,,,,,13597,2020-09-29_15h01.50.074,pmfbcont,2020.1.3,MacIntel,60,,,,,,,,,,,,,,,,,,,,,,,,,,,,,,,,,,,,,,j,1,0.82555,13597,2020-09-29_15h01.50.074,pmfbcont,pmface-cont-black,64,,CFD-BM-023-034-HC-resized.jpg,Pos,orange,0,j,0.82555,space,0.19839,space,0.19839,0,63,63,74,1,,zzzz,,Pos,j,orange,MIRROR.ogg,MIRROR.mp26,75,0,CFD-BM-023-034-HC-resized.jpg,0,0,,HC,10,CFD-BM-023-034-HC-resized.jpg,CFD-BM-039-031-HC-resized.jpg,,,,,,,,,,,,,,,,,,,,,,,,,,,,,,,,,,,,,,,,,,,,,,,
,,,,,,,,,,,,,13597,2020-09-29_15h01.50.074,pmfbcont,2020.1.3,MacIntel,60,,,,,,,,,,,,,,,,,,,,,,,,,,,,,,,,,,,,,,j,1,0.655575,13597,2020-09-29_15h01.50.074,pmfbcont,pmface-cont-black,65,,CFD-BM-026-009-HO-resized.jpg,Pos,green,0,j,0.655575,space,0.221615,space,0.221615,0,64,64,64,1,,zzzz,,Pos,j,green,MIRROR.ogg,MIRROR.mp16,65,0,CFD-BM-026-009-HO-resized.jpg,0,0,,HO,13,CFD-BM-026-009-HO-resized.jpg,CFD-BM-046-039-HO-resized.jpg,,,,,,,,,,,,,,,,,,,,,,,,,,,,,,,,,,,,,,,,,,,,,,,
,,,,,,,,,,,,,13597,2020-09-29_15h01.50.074,pmfbcont,2020.1.3,MacIntel,60,,,,,,,,,,,,,,,,,,,,,,,,,,,,,,,,,,,,,,j,1,0.77033,13597,2020-09-29_15h01.50.074,pmfbcont,pmface-cont-black,66,,CFD-BF-004-009-HO-resized.jpg,Pos,blue,0,j,0.77033,space,0.23473,space,0.23473,0,65,65,1,1,,sail,,Pos,j,blue,COURSE.ogg,COURSE.mp3,2,0,CFD-BF-004-009-HO-resized.jpg,0,0,,HO,2,CFD-BF-004-009-HO-resized.jpg,CFD-BF-015-006-HO-resized.jpg,,,,,,,,,,,,,,,,,,,,,,,,,,,,,,,,,,,,,,,,,,,,,,,
,,,,,,,,,,,,,13597,2020-09-29_15h01.50.074,pmfbcont,2020.1.3,MacIntel,60,,,,,,,,,,,,,,,,,,,,,,,,,,,,,,,,,,,,,,f,1,0.892665,13597,2020-09-29_15h01.50.074,pmfbcont,pmface-cont-black,67,,CFD-BF-004-002-F-resized.jpg,Neg,purple,0,f,0.892665,space,0.13914,space,0.13914,0,66,66,27,1,,ghort,,Neg,f,purple,FRIEND.ogg,FRIEND.mp3,28,0,CFD-BF-004-002-F-resized.jpg,0,0,,F,2,CFD-BF-004-002-F-resized.jpg,CFD-BF-015-025-F-resized.jpg,,,,,,,,,,,,,,,,,,,,,,,,,,,,,,,,,,,,,,,,,,,,,,,
,,,,,,,,,,,,,13597,2020-09-29_15h01.50.074,pmfbcont,2020.1.3,MacIntel,60,,,,,,,,,,,,,,,,,,,,,,,,,,,,,,,,,,,,,,j,1,0.569825,13597,2020-09-29_15h01.50.074,pmfbcont,pmface-cont-black,68,,CFD-BF-010-003-HO-resized.jpg,Pos,blue,0,j,0.569825,space,0.219065,space,0.219065,0,67,67,5,1,,percil,,Pos,j,blue,DESIRE.ogg,DESIRE.mp3,6,0,CFD-BF-010-003-HO-resized.jpg,0,0,,HO,6,CFD-BF-010-003-HO-resized.jpg,CFD-BF-036-030-HO-resized.jpg,,,,,,,,,,,,,,,,,,,,,,,,,,,,,,,,,,,,,,,,,,,,,,,
,,,,,,,,,,,,,13597,2020-09-29_15h01.50.074,pmfbcont,2020.1.3,MacIntel,60,,,,,,,,,,,,,,,,,,,,,,,,,,,,,,,,,,,,,,j,1,0.807415,13597,2020-09-29_15h01.50.074,pmfbcont,pmface-cont-black,69,,CFD-BF-004-008-HC-resized.jpg,Pos,orange,0,j,0.807415,space,0.20281,space,0.20281,0,68,68,14,1,,mogeer,,Pos,j,orange,EXTRA.ogg,EXTRA.mp3,15,0,CFD-BF-004-008-HC-resized.jpg,0,0,,HC,2,CFD-BF-004-008-HC-resized.jpg,CFD-BF-015-007-HC-resized.jpg,,,,,,,,,,,,,,,,,,,,,,,,,,,,,,,,,,,,,,,,,,,,,,,
,,,,,,,,,,,,,13597,2020-09-29_15h01.50.074,pmfbcont,2020.1.3,MacIntel,60,,,,,,,,,,,,,,,,,,,,,,,,,,,,,,,,,,,,,,j,1,0.62327,13597,2020-09-29_15h01.50.074,pmfbcont,pmface-cont-black,70,,CFD-BM-022-027-HO-resized.jpg,Pos,green,0,j,0.62327,space,0.220015,space,0.220015,0,69,69,60,1,,zzzz,,Pos,j,green,MIRROR.ogg,MIRROR.mp12,61,0,CFD-BM-022-027-HO-resized.jpg,0,0,,HO,9,CFD-BM-022-027-HO-resized.jpg,CFD-BM-038-007-HO-resized.jpg,,,,,,,,,,,,,,,,,,,,,,,,,,,,,,,,,,,,,,,,,,,,,,,
,,,,,,,,,,,,,13597,2020-09-29_15h01.50.074,pmfbcont,2020.1.3,MacIntel,60,,,,,,,,,,,,,,,,,,,,,,,,,,,,,,,,,,,,,,j,1,0.644445,13597,2020-09-29_15h01.50.074,pmfbcont,pmface-cont-black,71,,CFD-BM-019-004-HO-resized.jpg,Pos,blue,0,j,0.644445,space,0.201025,space,0.201025,0,70,70,57,1,,zzzz,,Pos,j,blue,MIRROR.ogg,MIRROR.mp9,58,0,CFD-BM-019-004-HO-resized.jpg,0,0,,HO,6,CFD-BM-019-004-HO-resized.jpg,CFD-BM-034-033-HO-resized.jpg,,,,,,,,,,,,,,,,,,,,,,,,,,,,,,,,,,,,,,,,,,,,,,,
,,,,,,,,,,,,,13597,2020-09-29_15h01.50.074,pmfbcont,2020.1.3,MacIntel,60,,,,,,,,,,,,,,,,,,,,,,,,,,,,,,,,,,,,,,j,1,0.73826,13597,2020-09-29_15h01.50.074,pmfbcont,pmface-cont-black,72,,CFD-BM-024-061-HO-resized.jpg,Pos,orange,0,j,0.73826,space,0.21816,space,0.21816,0,71,71,62,1,,zzzz,,Pos,j,orange,MIRROR.ogg,MIRROR.mp14,63,0,CFD-BM-024-061-HO-resized.jpg,0,0,,HO,11,CFD-BM-024-061-HO-resized.jpg,CFD-BM-041-041-HO-resized.jpg,,,,,,,,,,,,,,,,,,,,,,,,,,,,,,,,,,,,,,,,,,,,,,,
,,,,,,,,,,,,,13597,2020-09-29_15h01.50.074,pmfbcont,2020.1.3,MacIntel,60,,,,,,,,,,,,,,,,,,,,,,,,,,,,,,,,,,,,,,f,1,0.65777,13597,2020-09-29_15h01.50.074,pmfbcont,pmface-cont-black,73,,CFD-BF-013-017-A-resized.jpg,Neg,orange,0,f,0.65777,space,0.136605,space,0.136605,0,72,72,46,1,,qiogue,,Neg,f,orange,MEMBER.ogg,MEMBER.mp3,47,0,CFD-BF-013-017-A-resized.jpg,0,0,,A,8,CFD-BF-013-017-A-resized.jpg,CFD-BF-021-016-A-resized.jpg,,,,,,,,,,,,,,,,,,,,,,,,,,,,,,,,,,,,,,,,,,,,,,,
,,,,,,,,,,,,,13597,2020-09-29_15h01.50.074,pmfbcont,2020.1.3,MacIntel,60,,,,,,,,,,,,,,,,,,,,,,,,,,,,,,,,,,,,,,f,1,1.109475,13597,2020-09-29_15h01.50.074,pmfbcont,pmface-cont-black,74,,CFD-BF-045-068-A-resized.jpg,Neg,blue,0,f,1.109475,space,0.135575,space,0.135575,0,73,73,49,1,,fist,,Neg,f,blue,METHOD.ogg,METHOD.mp3,50,0,CFD-BF-045-068-A-resized.jpg,0,0,,A,11,CFD-BF-045-068-A-resized.jpg,CFD-BF-025-011-A-resized.jpg,,,,,,,,,,,,,,,,,,,,,,,,,,,,,,,,,,,,,,,,,,,,,,,
,,,,,,,,,,,,,13597,2020-09-29_15h01.50.074,pmfbcont,2020.1.3,MacIntel,60,,,,,,,,,,,,,,,,,,,,,,,,,,,,,,,,,,,,,,j,1,0.956625,13597,2020-09-29_15h01.50.074,pmfbcont,pmface-cont-black,75,,CFD-BM-020-026-HO-resized.jpg,Pos,orange,0,j,0.956625,space,0.203895,space,0.203895,0,74,74,58,1,,zzzz,,Pos,j,orange,MIRROR.ogg,MIRROR.mp10,59,0,CFD-BM-020-026-HO-resized.jpg,0,0,,HO,7,CFD-BM-020-026-HO-resized.jpg,CFD-BM-036-004-HO-resized.jpg,,,,,,,,,,,,,,,,,,,,,,,,,,,,,,,,,,,,,,,,,,,,,,,
,,,,,,,,,,,,,13597,2020-09-29_15h01.50.074,pmfbcont,2020.1.3,MacIntel,60,,,,,,,,,,,,,,,,,,,,,,,,,,,,,,,,,,,,,,f,1,1.056975,13597,2020-09-29_15h01.50.074,pmfbcont,pmface-cont-black,76,,CFD-BF-013-026-F-resized.jpg,Neg,blue,0,f,1.056975,space,0.10397,space,0.10397,0,75,75,33,1,,rohan,,Neg,f,blue,GLASS.ogg,GLASS.mp3,34,0,CFD-BF-013-026-F-resized.jpg,0,0,,F,8,CFD-BF-013-026-F-resized.jpg,CFD-BF-021-012-F-resized.jpg,,,,,,,,,,,,,,,,,,,,,,,,,,,,,,,,,,,,,,,,,,,,,,,
,,,,,,,,,,,,,13597,2020-09-29_15h01.50.074,pmfbcont,2020.1.3,MacIntel,60,,,,,,,,,,,,,,,,,,,,,,,,,,,,,,,,,,,,,,j,1,0.64144,13597,2020-09-29_15h01.50.074,pmfbcont,pmface-cont-black,77,,CFD-BM-015-016-HO-resized.jpg,Pos,purple,0,j,0.64144,space,0.20505,space,0.20505,0,76,76,55,1,,zzzz,,Pos,j,purple,MIRROR.ogg,MIRROR.mp7,56,0,CFD-BM-015-016-HO-resized.jpg,0,0,,HO,4,CFD-BM-015-016-HO-resized.jpg,CFD-BM-032-007-HO-resized.jpg,,,,,,,,,,,,,,,,,,,,,,,,,,,,,,,,,,,,,,,,,,,,,,,
,,,,,,,,,,,,,13597,2020-09-29_15h01.50.074,pmfbcont,2020.1.3,MacIntel,60,,,,,,,,,,,,,,,,,,,,,,,,,,,,,,,,,,,,,,j,0,0.89867,13597,2020-09-29_15h01.50.074,pmfbcont,pmface-cont-black,78,,CFD-BF-006-018-F-resized.jpg,Neg,blue,0,j,0.89867,space,0.21518,space,0.21518,0,77,77,29,1,,qarus,,Neg,f,blue,FRUIT.ogg,FRUIT.mp3,30,0,CFD-BF-006-018-F-resized.jpg,0,0,,F,4,CFD-BF-006-018-F-resized.jpg,CFD-BF-017-016-F-resized.jpg,,,,,,,,,,,,,,,,,,,,,,,,,,,,,,,,,,,,,,,,,,,,,,,
,,,,,,,,,,,,,13597,2020-09-29_15h01.50.074,pmfbcont,2020.1.3,MacIntel,60,,,,,,,,,,,,,,,,,,,,,,,,,,,,,,,,,,,,,,j,1,0.644005,13597,2020-09-29_15h01.50.074,pmfbcont,pmface-cont-black,79,,CFD-BF-049-034-HO-resized.jpg,Pos,blue,0,j,0.644005,space,0.233165,space,0.233165,0,78,78,9,1,,cotton,,Pos,j,blue,DOLLAR.ogg,DOLLAR.mp3,10,0,CFD-BF-049-034-HO-resized.jpg,0,0,,HO,10,CFD-BF-049-034-HO-resized.jpg,CFD-BF-024-005-HO-resized.jpg,,,,,,,,,,,,,,,,,,,,,,,,,,,,,,,,,,,,,,,,,,,,,,,
,,,,,,,,,,,,,13597,2020-09-29_15h01.50.074,pmfbcont,2020.1.3,MacIntel,60,,,,,,,,,,,,,,,,,,,,,,,,,,,,,,,,,,,,,,f,1,1.500585,13597,2020-09-29_15h01.50.074,pmfbcont,pmface-cont-black,80,,CFD-BM-002-002-F-resized.jpg,Neg,orange,0,f,1.500585,space,0.097695,space,0.097695,0,79,79,78,1,,zzzz,,Neg,f,orange,MIRROR.ogg,MIRROR.mp30,79,0,CFD-BM-002-002-F-resized.jpg,0,0,,F,1,CFD-BM-002-002-F-resized.jpg,CFD-BM-028-050-F-resized.jpg,,,,,,,,,,,,,,,,,,,,,,,,,,,,,,,,,,,,,,,,,,,,,,,
,,,,,,,,,,,,,13597,2020-09-29_15h01.50.074,pmfbcont,2020.1.3,MacIntel,60,,,,,,,,,,,,,,,,,,,,,,,,,,,,,,,,,,,,,,f,1,1.17412,13597,2020-09-29_15h01.50.074,pmfbcont,pmface-cont-black,81,,CFD-BF-011-021-F-resized.jpg,Neg,green,0,f,1.17412,space,0.10206,space,0.10206,0,80,80,32,1,,town,,Neg,f,green,GENTLE.ogg,GENTLE.mp3,33,0,CFD-BF-011-021-F-resized.jpg,0,0,,F,7,CFD-BF-011-021-F-resized.jpg,CFD-BF-031-062-F-resized.jpg,,,,,,,,,,,,,,,,,,,,,,,,,,,,,,,,,,,,,,,,,,,,,,,
,,,,,,,,,,,,,13597,2020-09-29_15h01.50.074,pmfbcont,2020.1.3,MacIntel,60,,,,,,,,,,,,,,,,,,,,,,,,,,,,,,,,,,,,,,f,1,1.57559,13597,2020-09-29_15h01.50.074,pmfbcont,pmface-cont-black,82,,CFD-BM-018-040-F-resized.jpg,Neg,orange,0,f,1.57559,space,0.150925,space,0.150925,0,81,81,82,1,,zzzz,,Neg,f,orange,MIRROR.ogg,MIRROR.mp34,83,0,CFD-BM-018-040-F-resized.jpg,0,0,,F,5,CFD-BM-018-040-F-resized.jpg,CFD-BM-033-038-F-resized.jpg,,,,,,,,,,,,,,,,,,,,,,,,,,,,,,,,,,,,,,,,,,,,,,,
,,,,,,,,,,,,,13597,2020-09-29_15h01.50.074,pmfbcont,2020.1.3,MacIntel,60,,,,,,,,,,,,,,,,,,,,,,,,,,,,,,,,,,,,,,f,1,0.88948,13597,2020-09-29_15h01.50.074,pmfbcont,pmface-cont-black,83,,CFD-BF-008-012-A-resized.jpg,Neg,purple,0,f,0.88948,space,0.10502,space,0.10502,0,82,82,43,1,,picture,,Neg,f,purple,MATTER.ogg,MATTER.mp3,44,0,CFD-BF-008-012-A-resized.jpg,0,0,,A,5,CFD-BF-008-012-A-resized.jpg,CFD-BF-018-019-A-resized.jpg,,,,,,,,,,,,,,,,,,,,,,,,,,,,,,,,,,,,,,,,,,,,,,,
,,,,,,,,,,,,,13597,2020-09-29_15h01.50.074,pmfbcont,2020.1.3,MacIntel,60,,,,,,,,,,,,,,,,,,,,,,,,,,,,,,,,,,,,,,f,1,1.07487,13597,2020-09-29_15h01.50.074,pmfbcont,pmface-cont-black,84,,CFD-BF-002-022-F-resized.jpg,Neg,orange,0,f,1.07487,space,0.084525,space,0.084525,0,83,83,26,1,,cafin,,Neg,f,orange,FRESH.ogg,FRESH.mp3,27,0,CFD-BF-002-022-F-resized.jpg,0,0,,F,1,CFD-BF-002-022-F-resized.jpg,CFD-BF-014-021-F-resized.jpg,,,,,,,,,,,,,,,,,,,,,,,,,,,,,,,,,,,,,,,,,,,,,,,
,,,,,,,,,,,,,13597,2020-09-29_15h01.50.074,pmfbcont,2020.1.3,MacIntel,60,,,,,,,,,,,,,,,,,,,,,,,,,,,,,,,,,,,,,,j,1,1.44175,13597,2020-09-29_15h01.50.074,pmfbcont,pmface-cont-black,85,,CFD-BF-005-010-HC-resized.jpg,Pos,purple,0,j,1.44175,space,0.15205,space,0.15205,0,84,84,15,1,,orukige,,Pos,j,purple,FALSE.ogg,FALSE.mp3,16,0,CFD-BF-005-010-HC-resized.jpg,0,0,,HC,3,CFD-BF-005-010-HC-resized.jpg,CFD-BF-037-030-HC-resized.jpg,,,,,,,,,,,,,,,,,,,,,,,,,,,,,,,,,,,,,,,,,,,,,,,
,,,,,,,,,,,,,13597,2020-09-29_15h01.50.074,pmfbcont,2020.1.3,MacIntel,60,,,,,,,,,,,,,,,,,,,,,,,,,,,,,,,,,,,,,,f,1,1.273005,13597,2020-09-29_15h01.50.074,pmfbcont,pmface-cont-black,86,,CFD-BM-013-019-F-resized.jpg,Neg,green,0,f,1.273005,space,0.05179,space,0.05179,0,85,85,80,1,,zzzz,,Neg,f,green,MIRROR.ogg,MIRROR.mp32,81,0,CFD-BM-013-019-F-resized.jpg,0,0,,F,3,CFD-BM-013-019-F-resized.jpg,CFD-BM-031-034-F-resized.jpg,,,,,,,,,,,,,,,,,,,,,,,,,,,,,,,,,,,,,,,,,,,,,,,
,,,,,,,,,,,,,13597,2020-09-29_15h01.50.074,pmfbcont,2020.1.3,MacIntel,60,,,,,,,,,,,,,,,,,,,,,,,,,,,,,,,,,,,,,,f,1,0.97438,13597,2020-09-29_15h01.50.074,pmfbcont,pmface-cont-black,87,,CFD-BF-010-019-A-resized.jpg,Neg,green,0,f,0.97438,space,0.06351,space,0.06351,0,86,86,44,1,,jinoc,,Neg,f,green,MATURE.ogg,MATURE.mp3,45,0,CFD-BF-010-019-A-resized.jpg,0,0,,A,6,CFD-BF-010-019-A-resized.jpg,CFD-BF-036-020-A-resized.jpg,,,,,,,,,,,,,,,,,,,,,,,,,,,,,,,,,,,,,,,,,,,,,,,
,,,,,,,,,,,,,13597,2020-09-29_15h01.50.074,pmfbcont,2020.1.3,MacIntel,60,,,,,,,,,,,,,,,,,,,,,,,,,,,,,,,,,,,,,,j,1,0.64021,13597,2020-09-29_15h01.50.074,pmfbcont,pmface-cont-black,88,,CFD-BF-041-004-HO-resized.jpg,Pos,purple,0,j,0.64021,space,0.088585,space,0.088585,0,87,87,11,1,,hoise,,Pos,j,purple,DREAM.ogg,DREAM.mp3,12,0,CFD-BF-041-004-HO-resized.jpg,0,0,,HO,12,CFD-BF-041-004-HO-resized.jpg,CFD-BF-027-006-HO-resized.jpg,,,,,,,,,,,,,,,,,,,,,,,,,,,,,,,,,,,,,,,,,,,,,,,
,,,,,,,,,,,,,13597,2020-09-29_15h01.50.074,pmfbcont,2020.1.3,MacIntel,60,,,,,,,,,,,,,,,,,,,,,,,,,,,,,,,,,,,,,,j,1,0.557035,13597,2020-09-29_15h01.50.074,pmfbcont,pmface-cont-black,89,,CFD-BF-049-036-HC-resized.jpg,Pos,orange,0,j,0.557035,space,0.15072,space,0.15072,0,88,88,22,1,,fudent,,Pos,j,orange,FLOAT.ogg,FLOAT.mp3,23,0,CFD-BF-049-036-HC-resized.jpg,0,0,,HC,10,CFD-BF-049-036-HC-resized.jpg,CFD-BF-024-003-HC-resized.jpg,,,,,,,,,,,,,,,,,,,,,,,,,,,,,,,,,,,,,,,,,,,,,,,
,,,,,,,,,,,,,13597,2020-09-29_15h01.50.074,pmfbcont,2020.1.3,MacIntel,60,,,,,,,,,,,,,,,,,,,,,,,,,,,,,,,,,,,,,,f,1,0.790165,13597,2020-09-29_15h01.50.074,pmfbcont,pmface-cont-black,90,,CFD-BF-049-042-F-resized.jpg,Neg,purple,0,f,0.790165,space,0.08562,space,0.08562,0,89,89,35,1,,muffler,,Neg,f,purple,GRASS.ogg,GRASS.mp3,36,0,CFD-BF-049-042-F-resized.jpg,0,0,,F,10,CFD-BF-049-042-F-resized.jpg,CFD-BF-024-030-F-resized.jpg,,,,,,,,,,,,,,,,,,,,,,,,,,,,,,,,,,,,,,,,,,,,,,,
,,,,,,,,,,,,,13597,2020-09-29_15h01.50.074,pmfbcont,2020.1.3,MacIntel,60,,,,,,,,,,,,,,,,,,,,,,,,,,,,,,,,,,,,,,f,1,0.7084,13597,2020-09-29_15h01.50.074,pmfbcont,pmface-cont-black,91,,CFD-BM-015-012-A-resized.jpg,Neg,orange,0,f,0.7084,space,0.11827,space,0.11827,0,90,90,94,1,,zzzz,,Neg,f,orange,MIRROR.ogg,MIRROR.mp46,95,0,CFD-BM-015-012-A-resized.jpg,0,0,,A,4,CFD-BM-015-012-A-resized.jpg,CFD-BM-032-015-A-resized.jpg,,,,,,,,,,,,,,,,,,,,,,,,,,,,,,,,,,,,,,,,,,,,,,,
,,,,,,,,,,,,,13597,2020-09-29_15h01.50.074,pmfbcont,2020.1.3,MacIntel,60,,,,,,,,,,,,,,,,,,,,,,,,,,,,,,,,,,,,,,f,1,0.82471,13597,2020-09-29_15h01.50.074,pmfbcont,pmface-cont-black,92,,CFD-BM-022-030-A-resized.jpg,Neg,purple,0,f,0.82471,space,0.166655,space,0.166655,0,91,91,99,1,,zzzz,,Neg,f,purple,MIRROR.ogg,MIRROR.mp51,100,0,CFD-BM-022-030-A-resized.jpg,0,0,,A,9,CFD-BM-022-030-A-resized.jpg,CFD-BM-038-038-A-resized.jpg,,,,,,,,,,,,,,,,,,,,,,,,,,,,,,,,,,,,,,,,,,,,,,,
,,,,,,,,,,,,,13597,2020-09-29_15h01.50.074,pmfbcont,2020.1.3,MacIntel,60,,,,,,,,,,,,,,,,,,,,,,,,,,,,,,,,,,,,,,f,1,0.741675,13597,2020-09-29_15h01.50.074,pmfbcont,pmface-cont-black,93,,CFD-BM-023-039-F-resized.jpg,Neg,purple,0,f,0.741675,space,0.10096,space,0.10096,0,92,92,87,1,,zzzz,,Neg,f,purple,MIRROR.ogg,MIRROR.mp39,88,0,CFD-BM-023-039-F-resized.jpg,0,0,,F,10,CFD-BM-023-039-F-resized.jpg,CFD-BM-039-044-F-resized.jpg,,,,,,,,,,,,,,,,,,,,,,,,,,,,,,,,,,,,,,,,,,,,,,,
,,,,,,,,,,,,,13597,2020-09-29_15h01.50.074,pmfbcont,2020.1.3,MacIntel,60,,,,,,,,,,,,,,,,,,,,,,,,,,,,,,,,,,,,,,f,1,0.741945,13597,2020-09-29_15h01.50.074,pmfbcont,pmface-cont-black,94,,CFD-BF-004-021-A-resized.jpg,Neg,green,0,f,0.741945,space,0.118505,space,0.118505,0,93,93,40,1,,crayon,,Neg,f,green,LUNCH.ogg,LUNCH.mp3,41,0,CFD-BF-004-021-A-resized.jpg,0,0,,A,2,CFD-BF-004-021-A-resized.jpg,CFD-BF-015-022-A-resized.jpg,,,,,,,,,,,,,,,,,,,,,,,,,,,,,,,,,,,,,,,,,,,,,,,
,,,,,,,,,,,,,13597,2020-09-29_15h01.50.074,pmfbcont,2020.1.3,MacIntel,60,,,,,,,,,,,,,,,,,,,,,,,,,,,,,,,,,,,,,,j,1,0.59054,13597,2020-09-29_15h01.50.074,pmfbcont,pmface-cont-black,95,,CFD-BF-013-003-HO-resized.jpg,Pos,purple,0,j,0.59054,space,0.20021,space,0.20021,0,94,94,7,1,,diamond,,Pos,j,purple,DIRTY.ogg,DIRTY.mp3,8,0,CFD-BF-013-003-HO-resized.jpg,0,0,,HO,8,CFD-BF-013-003-HO-resized.jpg,CFD-BF-021-014-HO-resized.jpg,,,,,,,,,,,,,,,,,,,,,,,,,,,,,,,,,,,,,,,,,,,,,,,
,,,,,,,,,,,,,13597,2020-09-29_15h01.50.074,pmfbcont,2020.1.3,MacIntel,60,,,,,,,,,,,,,,,,,,,,,,,,,,,,,,,,,,,,,,f,1,0.8695,13597,2020-09-29_15h01.50.074,pmfbcont,pmface-cont-black,96,,CFD-BF-011-011-A-resized.jpg,Neg,blue,0,f,0.8695,space,0.117675,space,0.117675,0,95,95,45,1,,guitar,,Neg,f,blue,MAYBE.ogg,MAYBE.mp3,46,0,CFD-BF-011-011-A-resized.jpg,0,0,,A,7,CFD-BF-011-011-A-resized.jpg,CFD-BF-031-020-A-resized.jpg,,,,,,,,,,,,,,,,,,,,,,,,,,,,,,,,,,,,,,,,,,,,,,,
,,,,,,,,,,,,,13597,2020-09-29_15h01.50.074,pmfbcont,2020.1.3,MacIntel,60,,,,,,,,,,,,,,,,,,,,,,,,,,,,,,,,,,,,,,f,1,2.9247,13597,2020-09-29_15h01.50.074,pmfbcont,pmface-cont-black,97,,CFD-BF-041-018-F-resized.jpg,Neg,blue,0,f,2.9247,space,1.219435,space,1.219435,0,96,96,37,1,,pinball,,Neg,f,blue,GREET.ogg,GREET.mp3,38,0,CFD-BF-041-018-F-resized.jpg,0,0,,F,12,CFD-BF-041-018-F-resized.jpg,CFD-BF-027-016-F-resized.jpg,,,,,,,,,,,,,,,,,,,,,,,,,,,,,,,,,,,,,,,,,,,,,,,
,,,,,,,,,,,,,13597,2020-09-29_15h01.50.074,pmfbcont,2020.1.3,MacIntel,60,,,,,,,,,,,,,,,,,,,,,,,,,,,,,,,,,,,,,,j,1,1.061145,13597,2020-09-29_15h01.50.074,pmfbcont,pmface-cont-black,98,,CFD-BM-026-006-HC-resized.jpg,Pos,blue,0,j,1.061145,space,0.14952,space,0.14952,0,97,97,77,1,,zzzz,,Pos,j,blue,MIRROR.ogg,MIRROR.mp29,78,0,CFD-BM-026-006-HC-resized.jpg,0,0,,HC,13,CFD-BM-026-006-HC-resized.jpg,CFD-BM-046-042-HC-resized.jpg,,,,,,,,,,,,,,,,,,,,,,,,,,,,,,,,,,,,,,,,,,,,,,,
,,,,,,,,,,,,,13597,2020-09-29_15h01.50.074,pmfbcont,2020.1.3,MacIntel,60,,,,,,,,,,,,,,,,,,,,,,,,,,,,,,,,,,,,,,f,1,0.82404,13597,2020-09-29_15h01.50.074,pmfbcont,pmface-cont-black,99,,CFD-BF-040-081-F-resized.jpg,Neg,orange,0,f,0.82404,space,0.121035,space,0.121035,0,98,98,38,1,,heakal,,Neg,f,orange,GROUND.ogg,GROUND.mp3,39,0,CFD-BF-040-081-F-resized.jpg,0,0,,F,13,CFD-BF-040-081-F-resized.jpg,CFD-BF-028-029-F-resized.jpg,,,,,,,,,,,,,,,,,,,,,,,,,,,,,,,,,,,,,,,,,,,,,,,
,,,,,,,,,,,,,13597,2020-09-29_15h01.50.074,pmfbcont,2020.1.3,MacIntel,60,,,,,,,,,,,,,,,,,,,,,,,,,,,,,,,,,,,,,,f,1,1.155985,13597,2020-09-29_15h01.50.074,pmfbcont,pmface-cont-black,100,,CFD-BM-020-016-F-resized.jpg,Neg,green,0,f,1.155985,space,0.118355,space,0.118355,0,99,99,84,1,,zzzz,,Neg,f,green,MIRROR.ogg,MIRROR.mp36,85,0,CFD-BM-020-016-F-resized.jpg,0,0,,F,7,CFD-BM-020-016-F-resized.jpg,CFD-BM-036-045-F-resized.jpg,,,,,,,,,,,,,,,,,,,,,,,,,,,,,,,,,,,,,,,,,,,,,,,
,,,,,,,,,,,,,13597,2020-09-29_15h01.50.074,pmfbcont,2020.1.3,MacIntel,60,,,,,,,,,,,,,,,,,,,,,,,,,,,,,,,,,,,,,,j,1,0.809995,13597,2020-09-29_15h01.50.074,pmfbcont,pmface-cont-black,101,,CFD-BF-013-005-HC-resized.jpg,Pos,green,0,j,0.809995,space,0.17041,space,0.17041,0,100,100,20,1,,lapaxer,,Pos,j,green,FIXED.ogg,FIXED.mp3,21,0,CFD-BF-013-005-HC-resized.jpg,0,0,,HC,8,CFD-BF-013-005-HC-resized.jpg,CFD-BF-021-015-HC-resized.jpg,,,,,,,,,,,,,,,,,,,,,,,,,,,,,,,,,,,,,,,,,,,,,,,
,,,,,,,,,,,,,13597,2020-09-29_15h01.50.074,pmfbcont,2020.1.3,MacIntel,60,,,,,,,,,,,,,,,,,,,,,,,,,,,,,,,,,,,,,,f,1,0.85941,13597,2020-09-29_15h01.50.074,pmfbcont,pmface-cont-black,102,,CFD-BF-040-051-A-resized.jpg,Neg,purple,0,f,0.85941,space,0.12042,space,0.12042,0,101,101,51,1,,bihue,,Neg,f,purple,MIRROR.ogg,MIRROR.mp3,52,0,CFD-BF-040-051-A-resized.jpg,0,0,,A,13,CFD-BF-040-051-A-resized.jpg,CFD-BF-028-021-A-resized.jpg,,,,,,,,,,,,,,,,,,,,,,,,,,,,,,,,,,,,,,,,,,,,,,,
,,,,,,,,,,,,,13597,2020-09-29_15h01.50.074,pmfbcont,2020.1.3,MacIntel,60,,,,,,,,,,,,,,,,,,,,,,,,,,,,,,,,,,,,,,j,1,0.608215,13597,2020-09-29_15h01.50.074,pmfbcont,pmface-cont-black,103,,CFD-BF-041-038-HC-resized.jpg,Pos,green,0,j,0.608215,space,0.15438,space,0.15438,0,102,102,24,1,,knife,,Pos,j,green,FLOWER.ogg,FLOWER.mp3,25,0,CFD-BF-041-038-HC-resized.jpg,0,0,,HC,12,CFD-BF-041-038-HC-resized.jpg,CFD-BF-027-013-HC-resized.jpg,,,,,,,,,,,,,,,,,,,,,,,,,,,,,,,,,,,,,,,,,,,,,,,
,,,,,,,,,,,,,13597,2020-09-29_15h01.50.074,pmfbcont,2020.1.3,MacIntel,60,,,,,,,,,,,,,,,,,,,,,,,,,,,,,,,,,,,,,,j,1,0.6085,13597,2020-09-29_15h01.50.074,pmfbcont,pmface-cont-black,104,,CFD-BF-050-004-HO-resized.jpg,Pos,green,0,j,0.6085,space,0.185965,space,0.185965,0,103,103,8,1,,haircut,,Pos,j,green,DOCTOR.ogg,DOCTOR.mp3,9,0,CFD-BF-050-004-HO-resized.jpg,0,0,,HO,9,CFD-BF-050-004-HO-resized.jpg,CFD-BF-023-003-HO-resized.jpg,,,,,,,,,,,,,,,,,,,,,,,,,,,,,,,,,,,,,,,,,,,,,,,
,,,,,,,,,,,,,13597,2020-09-29_15h01.50.074,pmfbcont,2020.1.3,MacIntel,60,,,,,,,,,,,,,,,,,,,,,,,,,,,,,,,,,,,,,,j,1,0.60678,13597,2020-09-29_15h01.50.074,pmfbcont,pmface-cont-black,105,,CFD-BM-024-061-HO-resized.jpg,Pos,orange,0,j,0.60678,space,0.284445,space,0.284445,1,0,104,62,1,,zzzz,,Pos,j,orange,MIRROR.ogg,MIRROR.mp14,63,0,CFD-BM-024-061-HO-resized.jpg,0,0,,HO,11,CFD-BM-024-061-HO-resized.jpg,CFD-BM-041-041-HO-resized.jpg,,,,,,,,,,,,,,,,,,,,,,,,,,,,,,,,,,,,,,,,,,,,,,,
,,,,,,,,,,,,,13597,2020-09-29_15h01.50.074,pmfbcont,2020.1.3,MacIntel,60,,,,,,,,,,,,,,,,,,,,,,,,,,,,,,,,,,,,,,j,1,0.71109,13597,2020-09-29_15h01.50.074,pmfbcont,pmface-cont-black,106,,CFD-BM-018-007-HO-resized.jpg,Pos,green,0,j,0.71109,space,0.18666,space,0.18666,1,1,105,56,1,,zzzz,,Pos,j,green,MIRROR.ogg,MIRROR.mp8,57,0,CFD-BM-018-007-HO-resized.jpg,0,0,,HO,5,CFD-BM-018-007-HO-resized.jpg,CFD-BM-033-029-HO-resized.jpg,,,,,,,,,,,,,,,,,,,,,,,,,,,,,,,,,,,,,,,,,,,,,,,
,,,,,,,,,,,,,13597,2020-09-29_15h01.50.074,pmfbcont,2020.1.3,MacIntel,60,,,,,,,,,,,,,,,,,,,,,,,,,,,,,,,,,,,,,,j,1,0.62471,13597,2020-09-29_15h01.50.074,pmfbcont,pmface-cont-black,107,,CFD-BF-049-036-HC-resized.jpg,Pos,orange,0,j,0.62471,space,0.201165,space,0.201165,1,2,106,22,1,,fudent,,Pos,j,orange,FLOAT.ogg,FLOAT.mp3,23,0,CFD-BF-049-036-HC-resized.jpg,0,0,,HC,10,CFD-BF-049-036-HC-resized.jpg,CFD-BF-024-003-HC-resized.jpg,,,,,,,,,,,,,,,,,,,,,,,,,,,,,,,,,,,,,,,,,,,,,,,
,,,,,,,,,,,,,13597,2020-09-29_15h01.50.074,pmfbcont,2020.1.3,MacIntel,60,,,,,,,,,,,,,,,,,,,,,,,,,,,,,,,,,,,,,,f,1,0.560865,13597,2020-09-29_15h01.50.074,pmfbcont,pmface-cont-black,108,,CFD-BM-015-012-A-resized.jpg,Neg,orange,0,f,0.560865,space,0.10384,space,0.10384,1,3,107,94,1,,zzzz,,Neg,f,orange,MIRROR.ogg,MIRROR.mp46,95,0,CFD-BM-015-012-A-resized.jpg,0,0,,A,4,CFD-BM-015-012-A-resized.jpg,CFD-BM-032-015-A-resized.jpg,,,,,,,,,,,,,,,,,,,,,,,,,,,,,,,,,,,,,,,,,,,,,,,
,,,,,,,,,,,,,13597,2020-09-29_15h01.50.074,pmfbcont,2020.1.3,MacIntel,60,,,,,,,,,,,,,,,,,,,,,,,,,,,,,,,,,,,,,,f,1,0.82611,13597,2020-09-29_15h01.50.074,pmfbcont,pmface-cont-black,109,,CFD-BM-002-002-F-resized.jpg,Neg,orange,0,f,0.82611,space,0.13049,space,0.13049,1,4,108,78,1,,zzzz,,Neg,f,orange,MIRROR.ogg,MIRROR.mp30,79,0,CFD-BM-002-002-F-resized.jpg,0,0,,F,1,CFD-BM-002-002-F-resized.jpg,CFD-BM-028-050-F-resized.jpg,,,,,,,,,,,,,,,,,,,,,,,,,,,,,,,,,,,,,,,,,,,,,,,
,,,,,,,,,,,,,13597,2020-09-29_15h01.50.074,pmfbcont,2020.1.3,MacIntel,60,,,,,,,,,,,,,,,,,,,,,,,,,,,,,,,,,,,,,,j,1,0.712955,13597,2020-09-29_15h01.50.074,pmfbcont,pmface-cont-black,110,,CFD-BM-018-004-HC-resized.jpg,Pos,blue,0,j,0.712955,space,0.15238,space,0.15238,1,5,109,69,1,,zzzz,,Pos,j,blue,MIRROR.ogg,MIRROR.mp21,70,0,CFD-BM-018-004-HC-resized.jpg,0,0,,HC,5,CFD-BM-018-004-HC-resized.jpg,CFD-BM-033-026-HC-resized.jpg,,,,,,,,,,,,,,,,,,,,,,,,,,,,,,,,,,,,,,,,,,,,,,,
,,,,,,,,,,,,,13597,2020-09-29_15h01.50.074,pmfbcont,2020.1.3,MacIntel,60,,,,,,,,,,,,,,,,,,,,,,,,,,,,,,,,,,,,,,f,0,0.626765,13597,2020-09-29_15h01.50.074,pmfbcont,pmface-cont-black,111,,CFD-BM-013-014-HC-resized.jpg,Pos,purple,0,f,0.626765,space,1.08483,space,1.08483,1,6,110,67,1,,zzzz,,Pos,j,purple,MIRROR.ogg,MIRROR.mp19,68,0,CFD-BM-013-014-HC-resized.jpg,0,0,,HC,3,CFD-BM-013-014-HC-resized.jpg,CFD-BM-031-009-HC-resized.jpg,,,,,,,,,,,,,,,,,,,,,,,,,,,,,,,,,,,,,,,,,,,,,,,
,,,,,,,,,,,,,13597,2020-09-29_15h01.50.074,pmfbcont,2020.1.3,MacIntel,60,,,,,,,,,,,,,,,,,,,,,,,,,,,,,,,,,,,,,,f,1,1.54549,13597,2020-09-29_15h01.50.074,pmfbcont,pmface-cont-black,112,,CFD-BF-045-068-A-resized.jpg,Neg,blue,0,f,1.54549,space,0.102895,space,0.102895,1,7,111,49,1,,fist,,Neg,f,blue,METHOD.ogg,METHOD.mp3,50,0,CFD-BF-045-068-A-resized.jpg,0,0,,A,11,CFD-BF-045-068-A-resized.jpg,CFD-BF-025-011-A-resized.jpg,,,,,,,,,,,,,,,,,,,,,,,,,,,,,,,,,,,,,,,,,,,,,,,
,,,,,,,,,,,,,13597,2020-09-29_15h01.50.074,pmfbcont,2020.1.3,MacIntel,60,,,,,,,,,,,,,,,,,,,,,,,,,,,,,,,,,,,,,,j,1,0.99355,13597,2020-09-29_15h01.50.074,pmfbcont,pmface-cont-black,113,,CFD-BF-008-007-HC-resized.jpg,Pos,blue,0,j,0.99355,space,0.1842,space,0.1842,1,8,112,17,1,,candy,,Pos,j,blue,FINAL.ogg,FINAL.mp3,18,0,CFD-BF-008-007-HC-resized.jpg,0,0,,HC,5,CFD-BF-008-007-HC-resized.jpg,CFD-BF-018-041-HC-resized.jpg,,,,,,,,,,,,,,,,,,,,,,,,,,,,,,,,,,,,,,,,,,,,,,,
,,,,,,,,,,,,,13597,2020-09-29_15h01.50.074,pmfbcont,2020.1.3,MacIntel,60,,,,,,,,,,,,,,,,,,,,,,,,,,,,,,,,,,,,,,f,1,1.229625,13597,2020-09-29_15h01.50.074,pmfbcont,pmface-cont-black,114,,CFD-BF-010-015-F-resized.jpg,Neg,purple,0,f,1.229625,space,0.10177,space,0.10177,1,9,113,31,1,,museum,,Neg,f,purple,GARDEN.ogg,GARDEN.mp3,32,0,CFD-BF-010-015-F-resized.jpg,0,0,,F,6,CFD-BF-010-015-F-resized.jpg,CFD-BF-036-046-F-resized.jpg,,,,,,,,,,,,,,,,,,,,,,,,,,,,,,,,,,,,,,,,,,,,,,,
,,,,,,,,,,,,,13597,2020-09-29_15h01.50.074,pmfbcont,2020.1.3,MacIntel,60,,,,,,,,,,,,,,,,,,,,,,,,,,,,,,,,,,,,,,f,1,0.712095,13597,2020-09-29_15h01.50.074,pmfbcont,pmface-cont-black,115,,CFD-BM-020-016-F-resized.jpg,Neg,green,0,f,0.712095,space,0.13456,space,0.13456,1,10,114,84,1,,zzzz,,Neg,f,green,MIRROR.ogg,MIRROR.mp36,85,0,CFD-BM-020-016-F-resized.jpg,0,0,,F,7,CFD-BM-020-016-F-resized.jpg,CFD-BM-036-045-F-resized.jpg,,,,,,,,,,,,,,,,,,,,,,,,,,,,,,,,,,,,,,,,,,,,,,,
,,,,,,,,,,,,,13597,2020-09-29_15h01.50.074,pmfbcont,2020.1.3,MacIntel,60,,,,,,,,,,,,,,,,,,,,,,,,,,,,,,,,,,,,,,j,1,0.62672,13597,2020-09-29_15h01.50.074,pmfbcont,pmface-cont-black,116,,CFD-BM-019-004-HO-resized.jpg,Pos,blue,0,j,0.62672,space,0.156325,space,0.156325,1,11,115,57,1,,zzzz,,Pos,j,blue,MIRROR.ogg,MIRROR.mp9,58,0,CFD-BM-019-004-HO-resized.jpg,0,0,,HO,6,CFD-BM-019-004-HO-resized.jpg,CFD-BM-034-033-HO-resized.jpg,,,,,,,,,,,,,,,,,,,,,,,,,,,,,,,,,,,,,,,,,,,,,,,
,,,,,,,,,,,,,13597,2020-09-29_15h01.50.074,pmfbcont,2020.1.3,MacIntel,60,,,,,,,,,,,,,,,,,,,,,,,,,,,,,,,,,,,,,,f,1,0.742635,13597,2020-09-29_15h01.50.074,pmfbcont,pmface-cont-black,117,,CFD-BM-022-030-A-resized.jpg,Neg,purple,0,f,0.742635,space,0.10104,space,0.10104,1,12,116,99,1,,zzzz,,Neg,f,purple,MIRROR.ogg,MIRROR.mp51,100,0,CFD-BM-022-030-A-resized.jpg,0,0,,A,9,CFD-BM-022-030-A-resized.jpg,CFD-BM-038-038-A-resized.jpg,,,,,,,,,,,,,,,,,,,,,,,,,,,,,,,,,,,,,,,,,,,,,,,
,,,,,,,,,,,,,13597,2020-09-29_15h01.50.074,pmfbcont,2020.1.3,MacIntel,60,,,,,,,,,,,,,,,,,,,,,,,,,,,,,,,,,,,,,,f,1,0.909765,13597,2020-09-29_15h01.50.074,pmfbcont,pmface-cont-black,118,,CFD-BF-050-036-F-resized.jpg,Neg,orange,0,f,0.909765,space,0.08992,space,0.08992,1,13,117,34,1,,boulder,,Neg,f,orange,GLOVE.ogg,GLOVE.mp3,35,0,CFD-BF-050-036-F-resized.jpg,0,0,,F,9,CFD-BF-050-036-F-resized.jpg,CFD-BF-023-014-F-resized.jpg,,,,,,,,,,,,,,,,,,,,,,,,,,,,,,,,,,,,,,,,,,,,,,,
,,,,,,,,,,,,,13597,2020-09-29_15h01.50.074,pmfbcont,2020.1.3,MacIntel,60,,,,,,,,,,,,,,,,,,,,,,,,,,,,,,,,,,,,,,j,1,0.62521,13597,2020-09-29_15h01.50.074,pmfbcont,pmface-cont-black,119,,CFD-BM-002-007-HO-resized.jpg,Pos,green,0,j,0.62521,space,0.23756,space,0.23756,1,14,118,52,1,,zzzz,,Pos,j,green,MIRROR.ogg,MIRROR.mp4,53,0,CFD-BM-002-007-HO-resized.jpg,0,0,,HO,1,CFD-BM-002-007-HO-resized.jpg,CFD-BM-028-028-HO-resized.jpg,,,,,,,,,,,,,,,,,,,,,,,,,,,,,,,,,,,,,,,,,,,,,,,
,,,,,,,,,,,,,13597,2020-09-29_15h01.50.074,pmfbcont,2020.1.3,MacIntel,60,,,,,,,,,,,,,,,,,,,,,,,,,,,,,,,,,,,,,,f,1,0.77668,13597,2020-09-29_15h01.50.074,pmfbcont,pmface-cont-black,120,,CFD-BM-013-019-F-resized.jpg,Neg,green,0,f,0.77668,space,0.10239,space,0.10239,1,15,119,80,1,,zzzz,,Neg,f,green,MIRROR.ogg,MIRROR.mp32,81,0,CFD-BM-013-019-F-resized.jpg,0,0,,F,3,CFD-BM-013-019-F-resized.jpg,CFD-BM-031-034-F-resized.jpg,,,,,,,,,,,,,,,,,,,,,,,,,,,,,,,,,,,,,,,,,,,,,,,
,,,,,,,,,,,,,13597,2020-09-29_15h01.50.074,pmfbcont,2020.1.3,MacIntel,60,,,,,,,,,,,,,,,,,,,,,,,,,,,,,,,,,,,,,,f,1,0.66095,13597,2020-09-29_15h01.50.074,pmfbcont,pmface-cont-black,121,,CFD-BM-018-040-F-resized.jpg,Neg,orange,0,f,0.66095,space,0.11748,space,0.11748,1,16,120,82,1,,zzzz,,Neg,f,orange,MIRROR.ogg,MIRROR.mp34,83,0,CFD-BM-018-040-F-resized.jpg,0,0,,F,5,CFD-BM-018-040-F-resized.jpg,CFD-BM-033-038-F-resized.jpg,,,,,,,,,,,,,,,,,,,,,,,,,,,,,,,,,,,,,,,,,,,,,,,
,,,,,,,,,,,,,13597,2020-09-29_15h01.50.074,pmfbcont,2020.1.3,MacIntel,60,,,,,,,,,,,,,,,,,,,,,,,,,,,,,,,,,,,,,,f,1,0.60737,13597,2020-09-29_15h01.50.074,pmfbcont,pmface-cont-black,122,,CFD-BF-004-021-A-resized.jpg,Neg,green,0,f,0.60737,space,0.13775,space,0.13775,1,17,121,40,1,,crayon,,Neg,f,green,LUNCH.ogg,LUNCH.mp3,41,0,CFD-BF-004-021-A-resized.jpg,0,0,,A,2,CFD-BF-004-021-A-resized.jpg,CFD-BF-015-022-A-resized.jpg,,,,,,,,,,,,,,,,,,,,,,,,,,,,,,,,,,,,,,,,,,,,,,,
,,,,,,,,,,,,,13597,2020-09-29_15h01.50.074,pmfbcont,2020.1.3,MacIntel,60,,,,,,,,,,,,,,,,,,,,,,,,,,,,,,,,,,,,,,f,1,0.609375,13597,2020-09-29_15h01.50.074,pmfbcont,pmface-cont-black,123,,CFD-BF-010-019-A-resized.jpg,Neg,green,0,f,0.609375,space,0.101505,space,0.101505,1,18,122,44,1,,jinoc,,Neg,f,green,MATURE.ogg,MATURE.mp3,45,0,CFD-BF-010-019-A-resized.jpg,0,0,,A,6,CFD-BF-010-019-A-resized.jpg,CFD-BF-036-020-A-resized.jpg,,,,,,,,,,,,,,,,,,,,,,,,,,,,,,,,,,,,,,,,,,,,,,,
,,,,,,,,,,,,,13597,2020-09-29_15h01.50.074,pmfbcont,2020.1.3,MacIntel,60,,,,,,,,,,,,,,,,,,,,,,,,,,,,,,,,,,,,,,j,1,0.758815,13597,2020-09-29_15h01.50.074,pmfbcont,pmface-cont-black,124,,CFD-BF-011-004-HO-resized.jpg,Pos,orange,0,j,0.758815,space,0.20132,space,0.20132,1,19,123,6,1,,jiend,,Pos,j,orange,DINNER.ogg,DINNER.mp3,7,0,CFD-BF-011-004-HO-resized.jpg,0,0,,HO,7,CFD-BF-011-004-HO-resized.jpg,CFD-BF-031-051-HO-resized.jpg,,,,,,,,,,,,,,,,,,,,,,,,,,,,,,,,,,,,,,,,,,,,,,,
,,,,,,,,,,,,,13597,2020-09-29_15h01.50.074,pmfbcont,2020.1.3,MacIntel,60,,,,,,,,,,,,,,,,,,,,,,,,,,,,,,,,,,,,,,j,1,0.671345,13597,2020-09-29_15h01.50.074,pmfbcont,pmface-cont-black,125,,CFD-BM-023-034-HC-resized.jpg,Pos,orange,0,j,0.671345,space,0.251785,space,0.251785,1,20,124,74,1,,zzzz,,Pos,j,orange,MIRROR.ogg,MIRROR.mp26,75,0,CFD-BM-023-034-HC-resized.jpg,0,0,,HC,10,CFD-BM-023-034-HC-resized.jpg,CFD-BM-039-031-HC-resized.jpg,,,,,,,,,,,,,,,,,,,,,,,,,,,,,,,,,,,,,,,,,,,,,,,
,,,,,,,,,,,,,13597,2020-09-29_15h01.50.074,pmfbcont,2020.1.3,MacIntel,60,,,,,,,,,,,,,,,,,,,,,,,,,,,,,,,,,,,,,,j,1,0.639345,13597,2020-09-29_15h01.50.074,pmfbcont,pmface-cont-black,126,,CFD-BF-006-008-HC-resized.jpg,Pos,green,0,j,0.639345,space,0.25594,space,0.25594,1,21,125,16,1,,toaster,,Pos,j,green,FAMOUS.ogg,FAMOUS.mp3,17,0,CFD-BF-006-008-HC-resized.jpg,0,0,,HC,4,CFD-BF-006-008-HC-resized.jpg,CFD-BF-017-007-HC-resized.jpg,,,,,,,,,,,,,,,,,,,,,,,,,,,,,,,,,,,,,,,,,,,,,,,
,,,,,,,,,,,,,13597,2020-09-29_15h01.50.074,pmfbcont,2020.1.3,MacIntel,60,,,,,,,,,,,,,,,,,,,,,,,,,,,,,,,,,,,,,,f,1,0.593175,13597,2020-09-29_15h01.50.074,pmfbcont,pmface-cont-black,127,,CFD-BM-015-014-F-resized.jpg,Neg,blue,0,f,0.593175,space,0.113535,space,0.113535,1,22,126,81,1,,zzzz,,Neg,f,blue,MIRROR.ogg,MIRROR.mp33,82,0,CFD-BM-015-014-F-resized.jpg,0,0,,F,4,CFD-BM-015-014-F-resized.jpg,CFD-BM-032-039-F-resized.jpg,,,,,,,,,,,,,,,,,,,,,,,,,,,,,,,,,,,,,,,,,,,,,,,
,,,,,,,,,,,,,13597,2020-09-29_15h01.50.074,pmfbcont,2020.1.3,MacIntel,60,,,,,,,,,,,,,,,,,,,,,,,,,,,,,,,,,,,,,,j,1,0.639215,13597,2020-09-29_15h01.50.074,pmfbcont,pmface-cont-black,128,,CFD-BM-020-026-HO-resized.jpg,Pos,orange,0,j,0.639215,space,0.183115,space,0.183115,1,23,127,58,1,,zzzz,,Pos,j,orange,MIRROR.ogg,MIRROR.mp10,59,0,CFD-BM-020-026-HO-resized.jpg,0,0,,HO,7,CFD-BM-020-026-HO-resized.jpg,CFD-BM-036-004-HO-resized.jpg,,,,,,,,,,,,,,,,,,,,,,,,,,,,,,,,,,,,,,,,,,,,,,,
,,,,,,,,,,,,,13597,2020-09-29_15h01.50.074,pmfbcont,2020.1.3,MacIntel,60,,,,,,,,,,,,,,,,,,,,,,,,,,,,,,,,,,,,,,j,1,0.85923,13597,2020-09-29_15h01.50.074,pmfbcont,pmface-cont-black,129,,CFD-BF-050-008-HC-resized.jpg,Pos,blue,0,j,0.85923,space,0.236015,space,0.236015,1,24,128,21,1,,rehad,,Pos,j,blue,FLAME.ogg,FLAME.mp3,22,0,CFD-BF-050-008-HC-resized.jpg,0,0,,HC,9,CFD-BF-050-008-HC-resized.jpg,CFD-BF-023-012-HC-resized.jpg,,,,,,,,,,,,,,,,,,,,,,,,,,,,,,,,,,,,,,,,,,,,,,,
,,,,,,,,,,,,,13597,2020-09-29_15h01.50.074,pmfbcont,2020.1.3,MacIntel,60,,,,,,,,,,,,,,,,,,,,,,,,,,,,,,,,,,,,,,f,1,1.109695,13597,2020-09-29_15h01.50.074,pmfbcont,pmface-cont-black,130,,CFD-BF-008-012-A-resized.jpg,Neg,purple,0,f,1.109695,space,0.10231,space,0.10231,1,25,129,43,1,,picture,,Neg,f,purple,MATTER.ogg,MATTER.mp3,44,0,CFD-BF-008-012-A-resized.jpg,0,0,,A,5,CFD-BF-008-012-A-resized.jpg,CFD-BF-018-019-A-resized.jpg,,,,,,,,,,,,,,,,,,,,,,,,,,,,,,,,,,,,,,,,,,,,,,,
,,,,,,,,,,,,,13597,2020-09-29_15h01.50.074,pmfbcont,2020.1.3,MacIntel,60,,,,,,,,,,,,,,,,,,,,,,,,,,,,,,,,,,,,,,f,1,1.19255,13597,2020-09-29_15h01.50.074,pmfbcont,pmface-cont-black,131,,CFD-BF-045-051-F-resized.jpg,Neg,green,0,f,1.19255,space,0.084475,space,0.084475,1,26,130,36,1,,door,,Neg,f,green,GLOBE.ogg,GLOBE.mp3,37,0,CFD-BF-045-051-F-resized.jpg,0,0,,F,11,CFD-BF-045-051-F-resized.jpg,CFD-BF-025-020-F-resized.jpg,,,,,,,,,,,,,,,,,,,,,,,,,,,,,,,,,,,,,,,,,,,,,,,
,,,,,,,,,,,,,13597,2020-09-29_15h01.50.074,pmfbcont,2020.1.3,MacIntel,60,,,,,,,,,,,,,,,,,,,,,,,,,,,,,,,,,,,,,,f,1,0.591455,13597,2020-09-29_15h01.50.074,pmfbcont,pmface-cont-black,132,,CFD-BM-011-020-A-resized.jpg,Neg,green,0,f,0.591455,space,0.10649,space,0.10649,1,27,131,92,1,,zzzz,,Neg,f,green,MIRROR.ogg,MIRROR.mp44,93,0,CFD-BM-011-020-A-resized.jpg,0,0,,A,2,CFD-BM-011-020-A-resized.jpg,CFD-BM-030-041-A-resized.jpg,,,,,,,,,,,,,,,,,,,,,,,,,,,,,,,,,,,,,,,,,,,,,,,
,,,,,,,,,,,,,13597,2020-09-29_15h01.50.074,pmfbcont,2020.1.3,MacIntel,60,,,,,,,,,,,,,,,,,,,,,,,,,,,,,,,,,,,,,,j,0,3.24302,13597,2020-09-29_15h01.50.074,pmfbcont,pmface-cont-black,133,,CFD-BF-013-026-F-resized.jpg,Neg,blue,0,j,3.24302,space,0.2168,space,0.2168,1,28,132,33,1,,rohan,,Neg,f,blue,GLASS.ogg,GLASS.mp3,34,0,CFD-BF-013-026-F-resized.jpg,0,0,,F,8,CFD-BF-013-026-F-resized.jpg,CFD-BF-021-012-F-resized.jpg,,,,,,,,,,,,,,,,,,,,,,,,,,,,,,,,,,,,,,,,,,,,,,,
,,,,,,,,,,,,,13597,2020-09-29_15h01.50.074,pmfbcont,2020.1.3,MacIntel,60,,,,,,,,,,,,,,,,,,,,,,,,,,,,,,,,,,,,,,j,1,0.687285,13597,2020-09-29_15h01.50.074,pmfbcont,pmface-cont-black,134,,CFD-BM-011-017-HO-resized.jpg,Pos,blue,0,j,0.687285,space,0.17104,space,0.17104,1,29,133,53,1,,zzzz,,Pos,j,blue,MIRROR.ogg,MIRROR.mp5,54,0,CFD-BM-011-017-HO-resized.jpg,0,0,,HO,2,CFD-BM-011-017-HO-resized.jpg,CFD-BM-030-004-HO-resized.jpg,,,,,,,,,,,,,,,,,,,,,,,,,,,,,,,,,,,,,,,,,,,,,,,
,,,,,,,,,,,,,13597,2020-09-29_15h01.50.074,pmfbcont,2020.1.3,MacIntel,60,,,,,,,,,,,,,,,,,,,,,,,,,,,,,,,,,,,,,,f,1,1.361215,13597,2020-09-29_15h01.50.074,pmfbcont,pmface-cont-black,135,,CFD-BF-008-018-F-resized.jpg,Neg,orange,0,f,1.361215,space,0.100785,space,0.100785,1,30,134,30,1,,genber,,Neg,f,orange,FUTURE.ogg,FUTURE.mp3,31,0,CFD-BF-008-018-F-resized.jpg,0,0,,F,5,CFD-BF-008-018-F-resized.jpg,CFD-BF-018-044-F-resized.jpg,,,,,,,,,,,,,,,,,,,,,,,,,,,,,,,,,,,,,,,,,,,,,,,
,,,,,,,,,,,,,13597,2020-09-29_15h01.50.074,pmfbcont,2020.1.3,MacIntel,60,,,,,,,,,,,,,,,,,,,,,,,,,,,,,,,,,,,,,,f,1,0.842485,13597,2020-09-29_15h01.50.074,pmfbcont,pmface-cont-black,136,,CFD-BM-025-045-A-resized.jpg,Neg,orange,0,f,0.842485,space,0.10181,space,0.10181,1,31,135,102,1,,zzzz,,Neg,f,orange,MIRROR.ogg,MIRROR.mp54,103,0,CFD-BM-025-045-A-resized.jpg,0,0,,A,12,CFD-BM-025-045-A-resized.jpg,CFD-BM-045-061-A-resized.jpg,,,,,,,,,,,,,,,,,,,,,,,,,,,,,,,,,,,,,,,,,,,,,,,
,,,,,,,,,,,,,13597,2020-09-29_15h01.50.074,pmfbcont,2020.1.3,MacIntel,60,,,,,,,,,,,,,,,,,,,,,,,,,,,,,,,,,,,,,,f,1,0.787665,13597,2020-09-29_15h01.50.074,pmfbcont,pmface-cont-black,137,,CFD-BM-024-018-A-resized.jpg,Neg,blue,0,f,0.787665,space,0.080405,space,0.080405,1,32,136,101,1,,zzzz,,Neg,f,blue,MIRROR.ogg,MIRROR.mp53,102,0,CFD-BM-024-018-A-resized.jpg,0,0,,A,11,CFD-BM-024-018-A-resized.jpg,CFD-BM-041-048-A-resized.jpg,,,,,,,,,,,,,,,,,,,,,,,,,,,,,,,,,,,,,,,,,,,,,,,
,,,,,,,,,,,,,13597,2020-09-29_15h01.50.074,pmfbcont,2020.1.3,MacIntel,60,,,,,,,,,,,,,,,,,,,,,,,,,,,,,,,,,,,,,,j,1,0.728375,13597,2020-09-29_15h01.50.074,pmfbcont,pmface-cont-black,138,,CFD-BM-026-006-HC-resized.jpg,Pos,blue,0,j,0.728375,space,0.202075,space,0.202075,1,33,137,77,1,,zzzz,,Pos,j,blue,MIRROR.ogg,MIRROR.mp29,78,0,CFD-BM-026-006-HC-resized.jpg,0,0,,HC,13,CFD-BM-026-006-HC-resized.jpg,CFD-BM-046-042-HC-resized.jpg,,,,,,,,,,,,,,,,,,,,,,,,,,,,,,,,,,,,,,,,,,,,,,,
,,,,,,,,,,,,,13597,2020-09-29_15h01.50.074,pmfbcont,2020.1.3,MacIntel,60,,,,,,,,,,,,,,,,,,,,,,,,,,,,,,,,,,,,,,j,1,1.74409,13597,2020-09-29_15h01.50.074,pmfbcont,pmface-cont-black,139,,CFD-BM-026-009-HO-resized.jpg,Pos,green,0,j,1.74409,space,0.16865,space,0.16865,1,34,138,64,1,,zzzz,,Pos,j,green,MIRROR.ogg,MIRROR.mp16,65,0,CFD-BM-026-009-HO-resized.jpg,0,0,,HO,13,CFD-BM-026-009-HO-resized.jpg,CFD-BM-046-039-HO-resized.jpg,,,,,,,,,,,,,,,,,,,,,,,,,,,,,,,,,,,,,,,,,,,,,,,
,,,,,,,,,,,,,13597,2020-09-29_15h01.50.074,pmfbcont,2020.1.3,MacIntel,60,,,,,,,,,,,,,,,,,,,,,,,,,,,,,,,,,,,,,,j,1,0.66031,13597,2020-09-29_15h01.50.074,pmfbcont,pmface-cont-black,140,,CFD-BF-041-038-HC-resized.jpg,Pos,green,0,j,0.66031,space,0.153475,space,0.153475,1,35,139,24,1,,knife,,Pos,j,green,FLOWER.ogg,FLOWER.mp3,25,0,CFD-BF-041-038-HC-resized.jpg,0,0,,HC,12,CFD-BF-041-038-HC-resized.jpg,CFD-BF-027-013-HC-resized.jpg,,,,,,,,,,,,,,,,,,,,,,,,,,,,,,,,,,,,,,,,,,,,,,,
,,,,,,,,,,,,,13597,2020-09-29_15h01.50.074,pmfbcont,2020.1.3,MacIntel,60,,,,,,,,,,,,,,,,,,,,,,,,,,,,,,,,,,,,,,j,1,0.576775,13597,2020-09-29_15h01.50.074,pmfbcont,pmface-cont-black,141,,CFD-BF-002-004-HO-resized.jpg,Pos,green,0,j,0.576775,space,0.585245,space,0.585245,1,36,140,0,1,,wouble,,Pos,j,green,COUNT.ogg,COUNT.mp3,1,0,CFD-BF-002-004-HO-resized.jpg,0,0,,HO,1,CFD-BF-002-004-HO-resized.jpg,CFD-BF-014-004-HO-resized.jpg,,,,,,,,,,,,,,,,,,,,,,,,,,,,,,,,,,,,,,,,,,,,,,,
,,,,,,,,,,,,,13597,2020-09-29_15h01.50.074,pmfbcont,2020.1.3,MacIntel,60,,,,,,,,,,,,,,,,,,,,,,,,,,,,,,,,,,,,,,j,1,0.855555,13597,2020-09-29_15h01.50.074,pmfbcont,pmface-cont-black,142,,CFD-BF-006-006-HO-resized.jpg,Pos,purple,0,j,0.855555,space,0.215005,space,0.215005,1,37,141,3,1,,country,,Pos,j,purple,DANCE.ogg,DANCE.mp3,4,0,CFD-BF-006-006-HO-resized.jpg,0,0,,HO,4,CFD-BF-006-006-HO-resized.jpg,CFD-BF-017-004-HO-resized.jpg,,,,,,,,,,,,,,,,,,,,,,,,,,,,,,,,,,,,,,,,,,,,,,,
,,,,,,,,,,,,,13597,2020-09-29_15h01.50.074,pmfbcont,2020.1.3,MacIntel,60,,,,,,,,,,,,,,,,,,,,,,,,,,,,,,,,,,,,,,j,1,0.642925,13597,2020-09-29_15h01.50.074,pmfbcont,pmface-cont-black,143,,CFD-BF-004-009-HO-resized.jpg,Pos,blue,0,j,0.642925,space,0.235105,space,0.235105,1,38,142,1,1,,sail,,Pos,j,blue,COURSE.ogg,COURSE.mp3,2,0,CFD-BF-004-009-HO-resized.jpg,0,0,,HO,2,CFD-BF-004-009-HO-resized.jpg,CFD-BF-015-006-HO-resized.jpg,,,,,,,,,,,,,,,,,,,,,,,,,,,,,,,,,,,,,,,,,,,,,,,
,,,,,,,,,,,,,13597,2020-09-29_15h01.50.074,pmfbcont,2020.1.3,MacIntel,60,,,,,,,,,,,,,,,,,,,,,,,,,,,,,,,,,,,,,,f,1,0.67633,13597,2020-09-29_15h01.50.074,pmfbcont,pmface-cont-black,144,,CFD-BM-019-045-A-resized.jpg,Neg,green,0,f,0.67633,space,0.12294,space,0.12294,1,39,143,96,1,,zzzz,,Neg,f,green,MIRROR.ogg,MIRROR.mp48,97,0,CFD-BM-019-045-A-resized.jpg,0,0,,A,6,CFD-BM-019-045-A-resized.jpg,CFD-BM-034-040-A-resized.jpg,,,,,,,,,,,,,,,,,,,,,,,,,,,,,,,,,,,,,,,,,,,,,,,
,,,,,,,,,,,,,13597,2020-09-29_15h01.50.074,pmfbcont,2020.1.3,MacIntel,60,,,,,,,,,,,,,,,,,,,,,,,,,,,,,,,,,,,,,,j,1,0.7624,13597,2020-09-29_15h01.50.074,pmfbcont,pmface-cont-black,145,,CFD-BM-011-019-HC-resized.jpg,Pos,orange,0,j,0.7624,space,0.197625,space,0.197625,1,40,144,66,1,,zzzz,,Pos,j,orange,MIRROR.ogg,MIRROR.mp18,67,0,CFD-BM-011-019-HC-resized.jpg,0,0,,HC,2,CFD-BM-011-019-HC-resized.jpg,CFD-BM-030-008-HC-resized.jpg,,,,,,,,,,,,,,,,,,,,,,,,,,,,,,,,,,,,,,,,,,,,,,,
,,,,,,,,,,,,,13597,2020-09-29_15h01.50.074,pmfbcont,2020.1.3,MacIntel,60,,,,,,,,,,,,,,,,,,,,,,,,,,,,,,,,,,,,,,j,1,0.926375,13597,2020-09-29_15h01.50.074,pmfbcont,pmface-cont-black,146,,CFD-BM-022-004-HC-resized.jpg,Pos,blue,0,j,0.926375,space,0.188205,space,0.188205,1,41,145,73,1,,zzzz,,Pos,j,blue,MIRROR.ogg,MIRROR.mp25,74,0,CFD-BM-022-004-HC-resized.jpg,0,0,,HC,9,CFD-BM-022-004-HC-resized.jpg,CFD-BM-038-004-HC-resized.jpg,,,,,,,,,,,,,,,,,,,,,,,,,,,,,,,,,,,,,,,,,,,,,,,
,,,,,,,,,,,,,13597,2020-09-29_15h01.50.074,pmfbcont,2020.1.3,MacIntel,60,,,,,,,,,,,,,,,,,,,,,,,,,,,,,,,,,,,,,,f,1,1.57773,13597,2020-09-29_15h01.50.074,pmfbcont,pmface-cont-black,147,,CFD-BM-023-039-F-resized.jpg,Neg,purple,0,f,1.57773,space,0.08532,space,0.08532,1,42,146,87,1,,zzzz,,Neg,f,purple,MIRROR.ogg,MIRROR.mp39,88,0,CFD-BM-023-039-F-resized.jpg,0,0,,F,10,CFD-BM-023-039-F-resized.jpg,CFD-BM-039-044-F-resized.jpg,,,,,,,,,,,,,,,,,,,,,,,,,,,,,,,,,,,,,,,,,,,,,,,
,,,,,,,,,,,,,13597,2020-09-29_15h01.50.074,pmfbcont,2020.1.3,MacIntel,60,,,,,,,,,,,,,,,,,,,,,,,,,,,,,,,,,,,,,,f,1,0.777965,13597,2020-09-29_15h01.50.074,pmfbcont,pmface-cont-black,148,,CFD-BM-011-013-F-resized.jpg,Neg,purple,0,f,0.777965,space,0.08551,space,0.08551,1,43,147,79,1,,zzzz,,Neg,f,purple,MIRROR.ogg,MIRROR.mp31,80,0,CFD-BM-011-013-F-resized.jpg,0,0,,F,2,CFD-BM-011-013-F-resized.jpg,CFD-BM-030-065-F-resized.jpg,,,,,,,,,,,,,,,,,,,,,,,,,,,,,,,,,,,,,,,,,,,,,,,
,,,,,,,,,,,,,13597,2020-09-29_15h01.50.074,pmfbcont,2020.1.3,MacIntel,60,,,,,,,,,,,,,,,,,,,,,,,,,,,,,,,,,,,,,,j,1,0.591135,13597,2020-09-29_15h01.50.074,pmfbcont,pmface-cont-black,149,,CFD-BM-020-024-HC-resized.jpg,Pos,purple,0,j,0.591135,space,0.201235,space,0.201235,1,44,148,71,1,,zzzz,,Pos,j,purple,MIRROR.ogg,MIRROR.mp23,72,0,CFD-BM-020-024-HC-resized.jpg,0,0,,HC,7,CFD-BM-020-024-HC-resized.jpg,CFD-BM-036-007-HC-resized.jpg,,,,,,,,,,,,,,,,,,,,,,,,,,,,,,,,,,,,,,,,,,,,,,,
,,,,,,,,,,,,,13597,2020-09-29_15h01.50.074,pmfbcont,2020.1.3,MacIntel,60,,,,,,,,,,,,,,,,,,,,,,,,,,,,,,,,,,,,,,j,1,0.71045,13597,2020-09-29_15h01.50.074,pmfbcont,pmface-cont-black,150,,CFD-BF-005-005-HO-resized.jpg,Pos,orange,0,j,0.71045,space,0.18554,space,0.18554,1,45,149,2,1,,enganen,,Pos,j,orange,COVER.ogg,COVER.mp3,3,0,CFD-BF-005-005-HO-resized.jpg,0,0,,HO,3,CFD-BF-005-005-HO-resized.jpg,CFD-BF-037-026-HO-resized.jpg,,,,,,,,,,,,,,,,,,,,,,,,,,,,,,,,,,,,,,,,,,,,,,,
,,,,,,,,,,,,,13597,2020-09-29_15h01.50.074,pmfbcont,2020.1.3,MacIntel,60,,,,,,,,,,,,,,,,,,,,,,,,,,,,,,,,,,,,,,f,1,0.77362,13597,2020-09-29_15h01.50.074,pmfbcont,pmface-cont-black,151,,CFD-BF-005-020-A-resized.jpg,Neg,blue,0,f,0.77362,space,0.089035,space,0.089035,1,46,150,41,1,,skafast,,Neg,f,blue,MAJOR.ogg,MAJOR.mp3,42,0,CFD-BF-005-020-A-resized.jpg,0,0,,A,3,CFD-BF-005-020-A-resized.jpg,CFD-BF-037-013-A-resized.jpg,,,,,,,,,,,,,,,,,,,,,,,,,,,,,,,,,,,,,,,,,,,,,,,
,,,,,,,,,,,,,13597,2020-09-29_15h01.50.074,pmfbcont,2020.1.3,MacIntel,60,,,,,,,,,,,,,,,,,,,,,,,,,,,,,,,,,,,,,,j,1,0.742925,13597,2020-09-29_15h01.50.074,pmfbcont,pmface-cont-black,152,,CFD-BF-004-008-HC-resized.jpg,Pos,orange,0,j,0.742925,space,0.23137,space,0.23137,1,47,151,14,1,,mogeer,,Pos,j,orange,EXTRA.ogg,EXTRA.mp3,15,0,CFD-BF-004-008-HC-resized.jpg,0,0,,HC,2,CFD-BF-004-008-HC-resized.jpg,CFD-BF-015-007-HC-resized.jpg,,,,,,,,,,,,,,,,,,,,,,,,,,,,,,,,,,,,,,,,,,,,,,,
,,,,,,,,,,,,,13597,2020-09-29_15h01.50.074,pmfbcont,2020.1.3,MacIntel,60,,,,,,,,,,,,,,,,,,,,,,,,,,,,,,,,,,,,,,f,1,1.277875,13597,2020-09-29_15h01.50.074,pmfbcont,pmface-cont-black,153,,CFD-BF-005-022-F-resized.jpg,Neg,green,0,f,1.277875,space,0.117695,space,0.117695,1,48,152,28,1,,foraig,,Neg,f,green,FRONT.ogg,FRONT.mp3,29,0,CFD-BF-005-022-F-resized.jpg,0,0,,F,3,CFD-BF-005-022-F-resized.jpg,CFD-BF-037-043-F-resized.jpg,,,,,,,,,,,,,,,,,,,,,,,,,,,,,,,,,,,,,,,,,,,,,,,
,,,,,,,,,,,,,13597,2020-09-29_15h01.50.074,pmfbcont,2020.1.3,MacIntel,60,,,,,,,,,,,,,,,,,,,,,,,,,,,,,,,,,,,,,,f,1,1.279165,13597,2020-09-29_15h01.50.074,pmfbcont,pmface-cont-black,154,,CFD-BF-040-081-F-resized.jpg,Neg,orange,0,f,1.279165,space,0.86973,space,0.86973,1,49,153,38,1,,heakal,,Neg,f,orange,GROUND.ogg,GROUND.mp3,39,0,CFD-BF-040-081-F-resized.jpg,0,0,,F,13,CFD-BF-040-081-F-resized.jpg,CFD-BF-028-029-F-resized.jpg,,,,,,,,,,,,,,,,,,,,,,,,,,,,,,,,,,,,,,,,,,,,,,,
,,,,,,,,,,,,,13597,2020-09-29_15h01.50.074,pmfbcont,2020.1.3,MacIntel,60,,,,,,,,,,,,,,,,,,,,,,,,,,,,,,,,,,,,,,j,1,0.59311,13597,2020-09-29_15h01.50.074,pmfbcont,pmface-cont-black,155,,CFD-BF-040-043-HO-resized.jpg,Pos,green,0,j,0.59311,space,0.18582,space,0.18582,1,50,154,12,1,,mrong,,Pos,j,green,DRESS.ogg,DRESS.mp3,13,0,CFD-BF-040-043-HO-resized.jpg,0,0,,HO,13,CFD-BF-040-043-HO-resized.jpg,CFD-BF-028-006-HO-resized.jpg,,,,,,,,,,,,,,,,,,,,,,,,,,,,,,,,,,,,,,,,,,,,,,,
,,,,,,,,,,,,,13597,2020-09-29_15h01.50.074,pmfbcont,2020.1.3,MacIntel,60,,,,,,,,,,,,,,,,,,,,,,,,,,,,,,,,,,,,,,f,1,0.978595,13597,2020-09-29_15h01.50.074,pmfbcont,pmface-cont-black,156,,CFD-BM-021-026-A-resized.jpg,Neg,orange,0,f,0.978595,space,0.085725,space,0.085725,1,51,155,98,1,,zzzz,,Neg,f,orange,MIRROR.ogg,MIRROR.mp50,99,0,CFD-BM-021-026-A-resized.jpg,0,0,,A,8,CFD-BM-021-026-A-resized.jpg,CFD-BM-037-041-A-resized.jpg,,,,,,,,,,,,,,,,,,,,,,,,,,,,,,,,,,,,,,,,,,,,,,,
,,,,,,,,,,,,,13597,2020-09-29_15h01.50.074,pmfbcont,2020.1.3,MacIntel,60,,,,,,,,,,,,,,,,,,,,,,,,,,,,,,,,,,,,,,f,1,1.29794,13597,2020-09-29_15h01.50.074,pmfbcont,pmface-cont-black,157,,CFD-BM-022-014-F-resized.jpg,Neg,orange,0,f,1.29794,space,0.07948,space,0.07948,1,52,156,86,1,,zzzz,,Neg,f,orange,MIRROR.ogg,MIRROR.mp38,87,0,CFD-BM-022-014-F-resized.jpg,0,0,,F,9,CFD-BM-022-014-F-resized.jpg,CFD-BM-038-017-F-resized.jpg,,,,,,,,,,,,,,,,,,,,,,,,,,,,,,,,,,,,,,,,,,,,,,,
,,,,,,,,,,,,,13597,2020-09-29_15h01.50.074,pmfbcont,2020.1.3,MacIntel,60,,,,,,,,,,,,,,,,,,,,,,,,,,,,,,,,,,,,,,j,1,0.805725,13597,2020-09-29_15h01.50.074,pmfbcont,pmface-cont-black,158,,CFD-BF-005-010-HC-resized.jpg,Pos,purple,0,j,0.805725,space,0.13353,space,0.13353,1,53,157,15,1,,orukige,,Pos,j,purple,FALSE.ogg,FALSE.mp3,16,0,CFD-BF-005-010-HC-resized.jpg,0,0,,HC,3,CFD-BF-005-010-HC-resized.jpg,CFD-BF-037-030-HC-resized.jpg,,,,,,,,,,,,,,,,,,,,,,,,,,,,,,,,,,,,,,,,,,,,,,,
,,,,,,,,,,,,,13597,2020-09-29_15h01.50.074,pmfbcont,2020.1.3,MacIntel,60,,,,,,,,,,,,,,,,,,,,,,,,,,,,,,,,,,,,,,j,1,0.725915,13597,2020-09-29_15h01.50.074,pmfbcont,pmface-cont-black,159,,CFD-BM-013-004-HO-resized.jpg,Pos,orange,0,j,0.725915,space,0.16922,space,0.16922,1,54,158,54,1,,zzzz,,Pos,j,orange,MIRROR.ogg,MIRROR.mp6,55,0,CFD-BM-013-004-HO-resized.jpg,0,0,,HO,3,CFD-BM-013-004-HO-resized.jpg,CFD-BM-031-004-HO-resized.jpg,,,,,,,,,,,,,,,,,,,,,,,,,,,,,,,,,,,,,,,,,,,,,,,
,,,,,,,,,,,,,13597,2020-09-29_15h01.50.074,pmfbcont,2020.1.3,MacIntel,60,,,,,,,,,,,,,,,,,,,,,,,,,,,,,,,,,,,,,,j,1,1.67645,13597,2020-09-29_15h01.50.074,pmfbcont,pmface-cont-black,160,,CFD-BF-013-003-HO-resized.jpg,Pos,purple,0,j,1.67645,space,0.170725,space,0.170725,1,55,159,7,1,,diamond,,Pos,j,purple,DIRTY.ogg,DIRTY.mp3,8,0,CFD-BF-013-003-HO-resized.jpg,0,0,,HO,8,CFD-BF-013-003-HO-resized.jpg,CFD-BF-021-014-HO-resized.jpg,,,,,,,,,,,,,,,,,,,,,,,,,,,,,,,,,,,,,,,,,,,,,,,
,,,,,,,,,,,,,13597,2020-09-29_15h01.50.074,pmfbcont,2020.1.3,MacIntel,60,,,,,,,,,,,,,,,,,,,,,,,,,,,,,,,,,,,,,,f,1,0.909015,13597,2020-09-29_15h01.50.074,pmfbcont,pmface-cont-black,161,,CFD-BF-041-018-F-resized.jpg,Neg,blue,0,f,0.909015,space,0.13528,space,0.13528,1,56,160,37,1,,pinball,,Neg,f,blue,GREET.ogg,GREET.mp3,38,0,CFD-BF-041-018-F-resized.jpg,0,0,,F,12,CFD-BF-041-018-F-resized.jpg,CFD-BF-027-016-F-resized.jpg,,,,,,,,,,,,,,,,,,,,,,,,,,,,,,,,,,,,,,,,,,,,,,,
,,,,,,,,,,,,,13597,2020-09-29_15h01.50.074,pmfbcont,2020.1.3,MacIntel,60,,,,,,,,,,,,,,,,,,,,,,,,,,,,,,,,,,,,,,j,1,0.79247,13597,2020-09-29_15h01.50.074,pmfbcont,pmface-cont-black,162,,CFD-BF-041-004-HO-resized.jpg,Pos,purple,0,j,0.79247,space,0.18318,space,0.18318,1,57,161,11,1,,hoise,,Pos,j,purple,DREAM.ogg,DREAM.mp3,12,0,CFD-BF-041-004-HO-resized.jpg,0,0,,HO,12,CFD-BF-041-004-HO-resized.jpg,CFD-BF-027-006-HO-resized.jpg,,,,,,,,,,,,,,,,,,,,,,,,,,,,,,,,,,,,,,,,,,,,,,,
,,,,,,,,,,,,,13597,2020-09-29_15h01.50.074,pmfbcont,2020.1.3,MacIntel,60,,,,,,,,,,,,,,,,,,,,,,,,,,,,,,,,,,,,,,f,1,0.793455,13597,2020-09-29_15h01.50.074,pmfbcont,pmface-cont-black,163,,CFD-BF-050-012-A-resized.jpg,Neg,purple,0,f,0.793455,space,0.135765,space,0.135765,1,58,162,47,1,,lunch,,Neg,f,purple,MEMORY.ogg,MEMORY.mp3,48,0,CFD-BF-050-012-A-resized.jpg,0,0,,A,9,CFD-BF-050-012-A-resized.jpg,CFD-BF-023-013-A-resized.jpg,,,,,,,,,,,,,,,,,,,,,,,,,,,,,,,,,,,,,,,,,,,,,,,
,,,,,,,,,,,,,13597,2020-09-29_15h01.50.074,pmfbcont,2020.1.3,MacIntel,60,,,,,,,,,,,,,,,,,,,,,,,,,,,,,,,,,,,,,,j,1,1.14421,13597,2020-09-29_15h01.50.074,pmfbcont,pmface-cont-black,164,,CFD-BM-025-004-HC-resized.jpg,Pos,green,0,j,1.14421,space,0.202255,space,0.202255,1,59,163,76,1,,zzzz,,Pos,j,green,MIRROR.ogg,MIRROR.mp28,77,0,CFD-BM-025-004-HC-resized.jpg,0,0,,HC,12,CFD-BM-025-004-HC-resized.jpg,CFD-BM-045-057-HC-resized.jpg,,,,,,,,,,,,,,,,,,,,,,,,,,,,,,,,,,,,,,,,,,,,,,,
,,,,,,,,,,,,,13597,2020-09-29_15h01.50.074,pmfbcont,2020.1.3,MacIntel,60,,,,,,,,,,,,,,,,,,,,,,,,,,,,,,,,,,,,,,f,1,1.95576,13597,2020-09-29_15h01.50.074,pmfbcont,pmface-cont-black,165,,CFD-BM-024-104-F-resized.jpg,Neg,green,0,f,1.95576,space,0.102275,space,0.102275,1,60,164,88,1,,zzzz,,Neg,f,green,MIRROR.ogg,MIRROR.mp40,89,0,CFD-BM-024-104-F-resized.jpg,0,0,,F,11,CFD-BM-024-104-F-resized.jpg,CFD-BM-041-030-F-resized.jpg,,,,,,,,,,,,,,,,,,,,,,,,,,,,,,,,,,,,,,,,,,,,,,,
,,,,,,,,,,,,,13597,2020-09-29_15h01.50.074,pmfbcont,2020.1.3,MacIntel,60,,,,,,,,,,,,,,,,,,,,,,,,,,,,,,,,,,,,,,f,1,0.66137,13597,2020-09-29_15h01.50.074,pmfbcont,pmface-cont-black,166,,CFD-BF-040-051-A-resized.jpg,Neg,purple,0,f,0.66137,space,0.135295,space,0.135295,1,61,165,51,1,,bihue,,Neg,f,purple,MIRROR.ogg,MIRROR.mp3,52,0,CFD-BF-040-051-A-resized.jpg,0,0,,A,13,CFD-BF-040-051-A-resized.jpg,CFD-BF-028-021-A-resized.jpg,,,,,,,,,,,,,,,,,,,,,,,,,,,,,,,,,,,,,,,,,,,,,,,
,,,,,,,,,,,,,13597,2020-09-29_15h01.50.074,pmfbcont,2020.1.3,MacIntel,60,,,,,,,,,,,,,,,,,,,,,,,,,,,,,,,,,,,,,,j,1,0.6591,13597,2020-09-29_15h01.50.074,pmfbcont,pmface-cont-black,167,,CFD-BF-010-003-HO-resized.jpg,Pos,blue,0,j,0.6591,space,0.201955,space,0.201955,1,62,166,5,1,,percil,,Pos,j,blue,DESIRE.ogg,DESIRE.mp3,6,0,CFD-BF-010-003-HO-resized.jpg,0,0,,HO,6,CFD-BF-010-003-HO-resized.jpg,CFD-BF-036-030-HO-resized.jpg,,,,,,,,,,,,,,,,,,,,,,,,,,,,,,,,,,,,,,,,,,,,,,,
,,,,,,,,,,,,,13597,2020-09-29_15h01.50.074,pmfbcont,2020.1.3,MacIntel,60,,,,,,,,,,,,,,,,,,,,,,,,,,,,,,,,,,,,,,f,1,0.909435,13597,2020-09-29_15h01.50.074,pmfbcont,pmface-cont-black,168,,CFD-BF-049-042-F-resized.jpg,Neg,purple,0,f,0.909435,space,0.084575,space,0.084575,1,63,167,35,1,,muffler,,Neg,f,purple,GRASS.ogg,GRASS.mp3,36,0,CFD-BF-049-042-F-resized.jpg,0,0,,F,10,CFD-BF-049-042-F-resized.jpg,CFD-BF-024-030-F-resized.jpg,,,,,,,,,,,,,,,,,,,,,,,,,,,,,,,,,,,,,,,,,,,,,,,
,,,,,,,,,,,,,13597,2020-09-29_15h01.50.074,pmfbcont,2020.1.3,MacIntel,60,,,,,,,,,,,,,,,,,,,,,,,,,,,,,,,,,,,,,,f,1,0.84409,13597,2020-09-29_15h01.50.074,pmfbcont,pmface-cont-black,169,,CFD-BF-006-012-A-resized.jpg,Neg,orange,0,f,0.84409,space,0.101525,space,0.101525,1,64,168,42,1,,sloofy,,Neg,f,orange,MATCH.ogg,MATCH.mp3,43,0,CFD-BF-006-012-A-resized.jpg,0,0,,A,4,CFD-BF-006-012-A-resized.jpg,CFD-BF-017-011-A-resized.jpg,,,,,,,,,,,,,,,,,,,,,,,,,,,,,,,,,,,,,,,,,,,,,,,
,,,,,,,,,,,,,13597,2020-09-29_15h01.50.074,pmfbcont,2020.1.3,MacIntel,60,,,,,,,,,,,,,,,,,,,,,,,,,,,,,,,,,,,,,,f,1,0.6292,13597,2020-09-29_15h01.50.074,pmfbcont,pmface-cont-black,170,,CFD-BM-023-011-A-resized.jpg,Neg,green,0,f,0.6292,space,0.13162,space,0.13162,1,65,169,100,1,,zzzz,,Neg,f,green,MIRROR.ogg,MIRROR.mp52,101,0,CFD-BM-023-011-A-resized.jpg,0,0,,A,10,CFD-BM-023-011-A-resized.jpg,CFD-BM-039-037-A-resized.jpg,,,,,,,,,,,,,,,,,,,,,,,,,,,,,,,,,,,,,,,,,,,,,,,
,,,,,,,,,,,,,13597,2020-09-29_15h01.50.074,pmfbcont,2020.1.3,MacIntel,60,,,,,,,,,,,,,,,,,,,,,,,,,,,,,,,,,,,,,,f,1,0.628695,13597,2020-09-29_15h01.50.074,pmfbcont,pmface-cont-black,171,,CFD-BM-026-017-A-resized.jpg,Neg,green,0,f,0.628695,space,0.13878,space,0.13878,1,66,170,103,1,,zzzz,,Neg,f,green,MIRROR.ogg,MIRROR.mp55,104,0,CFD-BM-026-017-A-resized.jpg,0,0,,A,13,CFD-BM-026-017-A-resized.jpg,CFD-BM-046-048-A-resized.jpg,,,,,,,,,,,,,,,,,,,,,,,,,,,,,,,,,,,,,,,,,,,,,,,
,,,,,,,,,,,,,13597,2020-09-29_15h01.50.074,pmfbcont,2020.1.3,MacIntel,60,,,,,,,,,,,,,,,,,,,,,,,,,,,,,,,,,,,,,,f,1,1.27887,13597,2020-09-29_15h01.50.074,pmfbcont,pmface-cont-black,172,,CFD-BF-004-002-F-resized.jpg,Neg,purple,0,f,1.27887,space,0.15252,space,0.15252,1,67,171,27,1,,ghort,,Neg,f,purple,FRIEND.ogg,FRIEND.mp3,28,0,CFD-BF-004-002-F-resized.jpg,0,0,,F,2,CFD-BF-004-002-F-resized.jpg,CFD-BF-015-025-F-resized.jpg,,,,,,,,,,,,,,,,,,,,,,,,,,,,,,,,,,,,,,,,,,,,,,,
,,,,,,,,,,,,,13597,2020-09-29_15h01.50.074,pmfbcont,2020.1.3,MacIntel,60,,,,,,,,,,,,,,,,,,,,,,,,,,,,,,,,,,,,,,j,1,0.639895,13597,2020-09-29_15h01.50.074,pmfbcont,pmface-cont-black,173,,CFD-BM-024-113-HC-resized.jpg,Pos,purple,0,j,0.639895,space,0.2178,space,0.2178,1,68,172,75,1,,zzzz,,Pos,j,purple,MIRROR.ogg,MIRROR.mp27,76,0,CFD-BM-024-113-HC-resized.jpg,0,0,,HC,11,CFD-BM-024-113-HC-resized.jpg,CFD-BM-041-045-HC-resized.jpg,,,,,,,,,,,,,,,,,,,,,,,,,,,,,,,,,,,,,,,,,,,,,,,
,,,,,,,,,,,,,13597,2020-09-29_15h01.50.074,pmfbcont,2020.1.3,MacIntel,60,,,,,,,,,,,,,,,,,,,,,,,,,,,,,,,,,,,,,,f,1,2.15819,13597,2020-09-29_15h01.50.074,pmfbcont,pmface-cont-black,174,,CFD-BM-021-029-F-resized.jpg,Neg,blue,0,f,2.15819,space,0.153825,space,0.153825,1,69,173,85,1,,zzzz,,Neg,f,blue,MIRROR.ogg,MIRROR.mp37,86,0,CFD-BM-021-029-F-resized.jpg,0,0,,F,8,CFD-BM-021-029-F-resized.jpg,CFD-BM-037-088-F-resized.jpg,,,,,,,,,,,,,,,,,,,,,,,,,,,,,,,,,,,,,,,,,,,,,,,
,,,,,,,,,,,,,13597,2020-09-29_15h01.50.074,pmfbcont,2020.1.3,MacIntel,60,,,,,,,,,,,,,,,,,,,,,,,,,,,,,,,,,,,,,,j,1,0.660515,13597,2020-09-29_15h01.50.074,pmfbcont,pmface-cont-black,175,,CFD-BM-022-027-HO-resized.jpg,Pos,green,0,j,0.660515,space,0.16832,space,0.16832,1,70,174,60,1,,zzzz,,Pos,j,green,MIRROR.ogg,MIRROR.mp12,61,0,CFD-BM-022-027-HO-resized.jpg,0,0,,HO,9,CFD-BM-022-027-HO-resized.jpg,CFD-BM-038-007-HO-resized.jpg,,,,,,,,,,,,,,,,,,,,,,,,,,,,,,,,,,,,,,,,,,,,,,,
,,,,,,,,,,,,,13597,2020-09-29_15h01.50.074,pmfbcont,2020.1.3,MacIntel,60,,,,,,,,,,,,,,,,,,,,,,,,,,,,,,,,,,,,,,f,1,0.794195,13597,2020-09-29_15h01.50.074,pmfbcont,pmface-cont-black,176,,CFD-BM-002-016-A-resized.jpg,Neg,purple,0,f,0.794195,space,0.151935,space,0.151935,1,71,175,91,1,,zzzz,,Neg,f,purple,MIRROR.ogg,MIRROR.mp43,92,0,CFD-BM-002-016-A-resized.jpg,0,0,,A,1,CFD-BM-002-016-A-resized.jpg,CFD-BM-028-012-A-resized.jpg,,,,,,,,,,,,,,,,,,,,,,,,,,,,,,,,,,,,,,,,,,,,,,,
,,,,,,,,,,,,,13597,2020-09-29_15h01.50.074,pmfbcont,2020.1.3,MacIntel,60,,,,,,,,,,,,,,,,,,,,,,,,,,,,,,,,,,,,,,f,1,0.75904,13597,2020-09-29_15h01.50.074,pmfbcont,pmface-cont-black,177,,CFD-BM-020-037-A-resized.jpg,Neg,blue,0,f,0.75904,space,0.120765,space,0.120765,1,72,176,97,1,,zzzz,,Neg,f,blue,MIRROR.ogg,MIRROR.mp49,98,0,CFD-BM-020-037-A-resized.jpg,0,0,,A,7,CFD-BM-020-037-A-resized.jpg,CFD-BM-036-037-A-resized.jpg,,,,,,,,,,,,,,,,,,,,,,,,,,,,,,,,,,,,,,,,,,,,,,,
,,,,,,,,,,,,,13597,2020-09-29_15h01.50.074,pmfbcont,2020.1.3,MacIntel,60,,,,,,,,,,,,,,,,,,,,,,,,,,,,,,,,,,,,,,j,1,0.66055,13597,2020-09-29_15h01.50.074,pmfbcont,pmface-cont-black,178,,CFD-BM-025-040-HO-resized.jpg,Pos,purple,0,j,0.66055,space,0.26872,space,0.26872,1,73,177,63,1,,zzzz,,Pos,j,purple,MIRROR.ogg,MIRROR.mp15,64,0,CFD-BM-025-040-HO-resized.jpg,0,0,,HO,12,CFD-BM-025-040-HO-resized.jpg,CFD-BM-045-055-HO-resized.jpg,,,,,,,,,,,,,,,,,,,,,,,,,,,,,,,,,,,,,,,,,,,,,,,
,,,,,,,,,,,,,13597,2020-09-29_15h01.50.074,pmfbcont,2020.1.3,MacIntel,60,,,,,,,,,,,,,,,,,,,,,,,,,,,,,,,,,,,,,,j,1,0.60999,13597,2020-09-29_15h01.50.074,pmfbcont,pmface-cont-black,179,,CFD-BF-040-010-HC-resized.jpg,Pos,blue,0,j,0.60999,space,0.21946,space,0.21946,1,74,178,25,1,,gruut,,Pos,j,blue,FREELY.ogg,FREELY.mp3,26,0,CFD-BF-040-010-HC-resized.jpg,0,0,,HC,13,CFD-BF-040-010-HC-resized.jpg,CFD-BF-028-020-HC-resized.jpg,,,,,,,,,,,,,,,,,,,,,,,,,,,,,,,,,,,,,,,,,,,,,,,
,,,,,,,,,,,,,13597,2020-09-29_15h01.50.074,pmfbcont,2020.1.3,MacIntel,60,,,,,,,,,,,,,,,,,,,,,,,,,,,,,,,,,,,,,,j,1,0.806965,13597,2020-09-29_15h01.50.074,pmfbcont,pmface-cont-black,180,,CFD-BF-045-062-HO-resized.jpg,Pos,orange,0,j,0.806965,space,0.207065,space,0.207065,1,75,179,10,1,,bejieze,,Pos,j,orange,DOZEN.ogg,DOZEN.mp3,11,0,CFD-BF-045-062-HO-resized.jpg,0,0,,HO,11,CFD-BF-045-062-HO-resized.jpg,CFD-BF-025-005-HO-resized.jpg,,,,,,,,,,,,,,,,,,,,,,,,,,,,,,,,,,,,,,,,,,,,,,,
,,,,,,,,,,,,,13597,2020-09-29_15h01.50.074,pmfbcont,2020.1.3,MacIntel,60,,,,,,,,,,,,,,,,,,,,,,,,,,,,,,,,,,,,,,j,1,1.32908,13597,2020-09-29_15h01.50.074,pmfbcont,pmface-cont-black,181,,CFD-BF-013-005-HC-resized.jpg,Pos,green,0,j,1.32908,space,0.254855,space,0.254855,1,76,180,20,1,,lapaxer,,Pos,j,green,FIXED.ogg,FIXED.mp3,21,0,CFD-BF-013-005-HC-resized.jpg,0,0,,HC,8,CFD-BF-013-005-HC-resized.jpg,CFD-BF-021-015-HC-resized.jpg,,,,,,,,,,,,,,,,,,,,,,,,,,,,,,,,,,,,,,,,,,,,,,,
,,,,,,,,,,,,,13597,2020-09-29_15h01.50.074,pmfbcont,2020.1.3,MacIntel,60,,,,,,,,,,,,,,,,,,,,,,,,,,,,,,,,,,,,,,f,1,0.74151,13597,2020-09-29_15h01.50.074,pmfbcont,pmface-cont-black,182,,CFD-BF-013-017-A-resized.jpg,Neg,orange,0,f,0.74151,space,0.13408,space,0.13408,1,77,181,46,1,,qiogue,,Neg,f,orange,MEMBER.ogg,MEMBER.mp3,47,0,CFD-BF-013-017-A-resized.jpg,0,0,,A,8,CFD-BF-013-017-A-resized.jpg,CFD-BF-021-016-A-resized.jpg,,,,,,,,,,,,,,,,,,,,,,,,,,,,,,,,,,,,,,,,,,,,,,,
,,,,,,,,,,,,,13597,2020-09-29_15h01.50.074,pmfbcont,2020.1.3,MacIntel,60,,,,,,,,,,,,,,,,,,,,,,,,,,,,,,,,,,,,,,f,1,0.871365,13597,2020-09-29_15h01.50.074,pmfbcont,pmface-cont-black,183,,CFD-BM-026-041-F-resized.jpg,Neg,orange,0,f,0.871365,space,0.1197,space,0.1197,1,78,182,90,1,,zzzz,,Neg,f,orange,MIRROR.ogg,MIRROR.mp42,91,0,CFD-BM-026-041-F-resized.jpg,0,0,,F,13,CFD-BM-026-041-F-resized.jpg,CFD-BM-046-063-F-resized.jpg,,,,,,,,,,,,,,,,,,,,,,,,,,,,,,,,,,,,,,,,,,,,,,,
,,,,,,,,,,,,,13597,2020-09-29_15h01.50.074,pmfbcont,2020.1.3,MacIntel,60,,,,,,,,,,,,,,,,,,,,,,,,,,,,,,,,,,,,,,f,1,0.877665,13597,2020-09-29_15h01.50.074,pmfbcont,pmface-cont-black,184,,CFD-BF-041-047-A-resized.jpg,Neg,orange,0,f,0.877665,space,0.100035,space,0.100035,1,79,183,50,1,,atout,,Neg,f,orange,MINUTE.ogg,MINUTE.mp3,51,0,CFD-BF-041-047-A-resized.jpg,0,0,,A,12,CFD-BF-041-047-A-resized.jpg,CFD-BF-027-008-A-resized.jpg,,,,,,,,,,,,,,,,,,,,,,,,,,,,,,,,,,,,,,,,,,,,,,,
,,,,,,,,,,,,,13597,2020-09-29_15h01.50.074,pmfbcont,2020.1.3,MacIntel,60,,,,,,,,,,,,,,,,,,,,,,,,,,,,,,,,,,,,,,j,1,0.939135,13597,2020-09-29_15h01.50.074,pmfbcont,pmface-cont-black,185,,CFD-BM-015-017-HC-resized.jpg,Pos,green,0,j,0.939135,space,0.184695,space,0.184695,1,80,184,68,1,,zzzz,,Pos,j,green,MIRROR.ogg,MIRROR.mp20,69,0,CFD-BM-015-017-HC-resized.jpg,0,0,,HC,4,CFD-BM-015-017-HC-resized.jpg,CFD-BM-032-010-HC-resized.jpg,,,,,,,,,,,,,,,,,,,,,,,,,,,,,,,,,,,,,,,,,,,,,,,
,,,,,,,,,,,,,13597,2020-09-29_15h01.50.074,pmfbcont,2020.1.3,MacIntel,60,,,,,,,,,,,,,,,,,,,,,,,,,,,,,,,,,,,,,,f,1,0.710025,13597,2020-09-29_15h01.50.074,pmfbcont,pmface-cont-black,186,,CFD-BF-049-039-A-resized.jpg,Neg,green,0,f,0.710025,space,0.11809,space,0.11809,1,81,185,48,1,,clip,,Neg,f,green,MIMIC.ogg,MIMIC.mp3,49,0,CFD-BF-049-039-A-resized.jpg,0,0,,A,10,CFD-BF-049-039-A-resized.jpg,CFD-BF-024-024-A-resized.jpg,,,,,,,,,,,,,,,,,,,,,,,,,,,,,,,,,,,,,,,,,,,,,,,
,,,,,,,,,,,,,13597,2020-09-29_15h01.50.074,pmfbcont,2020.1.3,MacIntel,60,,,,,,,,,,,,,,,,,,,,,,,,,,,,,,,,,,,,,,f,1,0.70496,13597,2020-09-29_15h01.50.074,pmfbcont,pmface-cont-black,187,,CFD-BM-025-051-F-resized.jpg,Neg,blue,0,f,0.70496,space,0.134405,space,0.134405,1,82,186,89,1,,zzzz,,Neg,f,blue,MIRROR.ogg,MIRROR.mp41,90,0,CFD-BM-025-051-F-resized.jpg,0,0,,F,12,CFD-BM-025-051-F-resized.jpg,CFD-BM-045-045-F-resized.jpg,,,,,,,,,,,,,,,,,,,,,,,,,,,,,,,,,,,,,,,,,,,,,,,
,,,,,,,,,,,,,13597,2020-09-29_15h01.50.074,pmfbcont,2020.1.3,MacIntel,60,,,,,,,,,,,,,,,,,,,,,,,,,,,,,,,,,,,,,,j,1,0.677775,13597,2020-09-29_15h01.50.074,pmfbcont,pmface-cont-black,188,,CFD-BF-010-005-HC-resized.jpg,Pos,orange,0,j,0.677775,space,0.06446,space,0.06446,1,83,187,18,1,,fakily,,Pos,j,orange,FAVOR.ogg,FAVOR.mp3,19,0,CFD-BF-010-005-HC-resized.jpg,0,0,,HC,6,CFD-BF-010-005-HC-resized.jpg,CFD-BF-036-032-HC-resized.jpg,,,,,,,,,,,,,,,,,,,,,,,,,,,,,,,,,,,,,,,,,,,,,,,
,,,,,,,,,,,,,13597,2020-09-29_15h01.50.074,pmfbcont,2020.1.3,MacIntel,60,,,,,,,,,,,,,,,,,,,,,,,,,,,,,,,,,,,,,,f,1,0.804975,13597,2020-09-29_15h01.50.074,pmfbcont,pmface-cont-black,189,,CFD-BF-011-011-A-resized.jpg,Neg,blue,0,f,0.804975,space,0.101145,space,0.101145,1,84,188,45,1,,guitar,,Neg,f,blue,MAYBE.ogg,MAYBE.mp3,46,0,CFD-BF-011-011-A-resized.jpg,0,0,,A,7,CFD-BF-011-011-A-resized.jpg,CFD-BF-031-020-A-resized.jpg,,,,,,,,,,,,,,,,,,,,,,,,,,,,,,,,,,,,,,,,,,,,,,,
,,,,,,,,,,,,,13597,2020-09-29_15h01.50.074,pmfbcont,2020.1.3,MacIntel,60,,,,,,,,,,,,,,,,,,,,,,,,,,,,,,,,,,,,,,j,1,0.676375,13597,2020-09-29_15h01.50.074,pmfbcont,pmface-cont-black,190,,CFD-BF-011-005-HC-resized.jpg,Pos,purple,0,j,0.676375,space,0.201285,space,0.201285,1,85,189,19,1,,kife,,Pos,j,purple,FIRST.ogg,FIRST.mp3,20,0,CFD-BF-011-005-HC-resized.jpg,0,0,,HC,7,CFD-BF-011-005-HC-resized.jpg,CFD-BF-031-048-HC-resized.jpg,,,,,,,,,,,,,,,,,,,,,,,,,,,,,,,,,,,,,,,,,,,,,,,
